{
  "resourceType": "Bundle",
  "type": "collection",
  "entry": [
    {
      "resource": {
        "resourceType": "ChargeItem",
        "id": "200.334.138.469.717.92",
        "meta": {
          "profile": [
            "https://gematik.de/fhir/erpchrg/StructureDefinition/GEM_ERPCHRG_PR_ChargeItem|1.0"
          ]
        },
        "identifier": [
          {
            "system": "https://gematik.de/fhir/erp/NamingSystem/GEM_ERP_NS_PrescriptionId",
            "value": "200.334.138.469.717.92"
          },
          {
            "system": "https://gematik.de/fhir/erp/NamingSystem/GEM_ERP_NS_AccessCode",
            "value": "abd4afed9f3f458114fc3407878213e110f238d1afa919fbed7282abbef68bfd"
          }
        ],
        "status": "billable",
        "code": {
          "coding": [
            {
              "system": "http://terminology.hl7.org/CodeSystem/data-absent-reason",
              "code": "not-applicable"
            }
          ]
        },
        "subject": {
          "identifier": {
            "system": "http://fhir.de/sid/pkv/kvid-10",
            "value": "X110465770"
          }
        },
        "enterer": {
          "identifier": {
            "system": "https://gematik.de/fhir/sid/telematik-id",
            "value": "3-SMC-B-Testkarte-883110000116873"
          }
        },
        "enteredDate": "2023-02-23T15:08:32.699+00:00",
        "supportingInformation": [
          {
            "reference": "urn:uuid:c8606712-0000-0000-0001-000000000000",
            "display": "https://fhir.kbv.de/StructureDefinition/KBV_PR_ERP_Bundle"
          },
          {
            "reference": "urn:uuid:c8606712-0000-0000-0004-000000000000",
            "display": "http://fhir.abda.de/eRezeptAbgabedaten/StructureDefinition/DAV-PKV-PR-ERP-AbgabedatenBundle"
          },
          {
            "reference": "urn:uuid:c8606712-0000-0000-0003-000000000000",
            "display": "https://gematik.de/fhir/erp/StructureDefinition/GEM_ERP_PR_Bundle"
          }
        ]
      }
    },
    {
      "resource": {
        "resourceType": "Bundle",
        "id": "c8606712-0000-0000-0003-000000000000",
        "meta": {
          "profile": [
            "https://gematik.de/fhir/erp/StructureDefinition/GEM_ERP_PR_Bundle|1.2"
          ]
        },
        "identifier": {
          "system": "https://gematik.de/fhir/erp/NamingSystem/GEM_ERP_NS_PrescriptionId",
          "value": "200.000.001.206.112.29"
        },
        "type": "document",
        "timestamp": "2023-02-23T15:08:30.803+00:00",
        "link": [
          {
            "relation": "self",
            "url": "https://erp-dev.zentral.erp.splitdns.ti-dienste.de/Task/200.000.001.206.112.29/$close/"
          }
        ],
        "entry": [
          {
            "fullUrl": "urn:uuid:1f107ad7-f4bf-47e3-a606-0181f5dd4f73",
            "resource": {
              "resourceType": "Composition",
              "id": "1f107ad7-f4bf-47e3-a606-0181f5dd4f73",
              "meta": {
                "profile": [
                  "https://gematik.de/fhir/erp/StructureDefinition/GEM_ERP_PR_Composition|1.2"
                ]
              },
              "extension": [
                {
                  "url": "https://gematik.de/fhir/erp/StructureDefinition/GEM_ERP_EX_Beneficiary",
                  "valueIdentifier": {
                    "system": "https://gematik.de/fhir/sid/telematik-id",
                    "value": "3-SMC-B-Testkarte-883110000116873"
                  }
                }
              ],
              "status": "final",
              "type": {
                "coding": [
                  {
                    "system": "https://gematik.de/fhir/erp/CodeSystem/GEM_ERP_CS_DocumentType",
                    "code": "3",
                    "display": "Receipt"
                  }
                ]
              },
              "date": "2023-02-23T15:08:30.802+00:00",
              "author": [
                {
                  "reference": "https://erp-dev.zentral.erp.splitdns.ti-dienste.de/Device/1"
                }
              ],
              "title": "Quittung",
              "event": [
                {
                  "period": {
                    "start": "2023-02-23T15:08:29.843+00:00",
                    "end": "2023-02-23T15:08:30.802+00:00"
                  }
                }
              ],
              "section": [
                {
                  "entry": [
                    {
                      "reference": "Binary/PrescriptionDigest-200.000.001.206.112.29"
                    }
                  ]
                }
              ]
            }
          },
          {
            "fullUrl": "https://erp-dev.zentral.erp.splitdns.ti-dienste.de/Device/1",
            "resource": {
              "resourceType": "Device",
              "id": "1",
              "meta": {
                "profile": [
                  "https://gematik.de/fhir/erp/StructureDefinition/GEM_ERP_PR_Device|1.2"
                ]
              },
              "status": "active",
              "serialNumber": "1.9.0",
              "deviceName": [
                {
                  "name": "E-Rezept Fachdienst",
                  "type": "user-friendly-name"
                }
              ],
              "version": [
                {
                  "value": "1.9.0"
                }
              ],
              "contact": [
                {
                  "system": "email",
                  "value": "betrieb@gematik.de"
                }
              ]
            }
          },
          {
            "fullUrl": "https://erp-dev.zentral.erp.splitdns.ti-dienste.de/Binary/PrescriptionDigest-200.000.001.206.112.29",
            "resource": {
              "resourceType": "Binary",
              "id": "PrescriptionDigest-200.000.001.206.112.29",
              "meta": {
                "versionId": "1",
                "profile": [
                  "https://gematik.de/fhir/erp/StructureDefinition/GEM_ERP_PR_Digest|1.2"
                ]
              },
              "contentType": "application/octet-stream",
              "data": "aYDkjPosw3Sa5dX5EmSghwhVg7d9jhoXHdwszETXV/8="
            }
          }
        ],
        "signature": {
          "type": [
            {
              "system": "urn:iso-astm:E1762-95:2013",
              "code": "1.2.840.10065.1.12.1.1"
            }
          ],
          "when": "2023-02-23T15:08:32.985+00:00",
          "who": {
            "reference": "https://erp-dev.zentral.erp.splitdns.ti-dienste.de/Device/1"
          },
          "sigFormat": "application/pkcs7-mime",
          "data": "MIIUnAYJKoZIhvcNAQcCoIIUjTCCFIkCAQUxDTALBglghkgBZQM"
        }
      },
      "fullUrl": "urn:uuid:c8606712-0000-0000-0003-000000000000"
    },
    {
      "resource": {
        "resourceType": "MedicationDispense",
        "id": "a6370174-6209-4203-921f-7adcd3dbe5ba",
        "meta": {
          "profile": [
            "https://gematik.de/fhir/erp/StructureDefinition/GEM_ERP_PR_MedicationDispense|1.2"
          ],
          "tag": [
            {
              "display": "Beispiel MedicationDispense PKV Freitext"
            }
          ]
        },
        "contained": [
          {
            "resourceType": "Medication",
            "id": "2816d83e-e2aa-4e5b-ad4c-5f402a36643a",
            "meta": {
              "profile": [
                "https://fhir.kbv.de/StructureDefinition/KBV_PR_ERP_Medication_FreeText|1.1.0"
              ]
            },
            "extension": [
              {
                "url": "https://fhir.kbv.de/StructureDefinition/KBV_EX_ERP_Medication_Category",
                "valueCoding": {
                  "system": "https://fhir.kbv.de/CodeSystem/KBV_CS_ERP_Medication_Category",
                  "code": "00"
                }
              },
              {
                "url": "https://fhir.kbv.de/StructureDefinition/KBV_EX_ERP_Medication_Vaccine",
                "valueBoolean": false
              }
            ],
            "code": {
              "coding": [
                {
                  "system": "https://fhir.kbv.de/CodeSystem/KBV_CS_ERP_Medication_Type",
                  "code": "freitext"
                }
              ],
              "text": "Yellox 0,9 mg/ml 5ml Augentrpf. Croma/Bausch&Lomb"
            }
          }
        ],
        "identifier": [
          {
            "system": "https://gematik.de/fhir/erp/NamingSystem/GEM_ERP_NS_PrescriptionId",
            "value": "200.334.138.469.717.92"
          }
        ],
        "status": "completed",
        "medicationReference": {
          "reference": "#2816d83e-e2aa-4e5b-ad4c-5f402a36643a",
          "display": "Yellox 0,9 mg/ml 5ml Augentrpf. Croma/Bausch&Lomb"
        },
        "subject": {
          "identifier": {
            "system": "http://fhir.de/sid/pkv/kvid-10",
            "value": "P123464237"
          }
        },
        "performer": [
          {
            "actor": {
              "identifier": {
                "system": "https://gematik.de/fhir/sid/telematik-id",
                "value": "3-abc-1234567890"
              }
            }
          }
        ],
        "whenHandedOver": "2023-07-03"
      }
    },
    {
      "resource": {
        "resourceType": "Bundle",
        "id": "129a33dc-b03e-4a05-81ee-fe0b63fc81f0",
        "meta": {
          "profile": [
            "http://fhir.abda.de/eRezeptAbgabedaten/StructureDefinition/DAV-PKV-PR-ERP-AbgabedatenBundle|1.2"
          ],
          "tag": [
            {
              "display": "Beispiel RezeptAbgabedatenPKV Bundle (FTX-11)"
            },
            {
              "display": "ACHTUNG! Der fachlich korrekte Inhalt der Beispielinstanz kann nicht gewährleistet werden. Wir sind jederzeit dankbar für Hinweise auf Fehler oder für Verbesserungsvorschläge."
            }
          ]
        },
        "identifier": {
          "system": "https://gematik.de/fhir/erp/NamingSystem/GEM_ERP_NS_PrescriptionId",
          "value": "200.334.138.469.717.92"
        },
        "type": "document",
        "timestamp": "2023-07-07T23:30:00+00:00",
        "entry": [
          {
            "fullUrl": "urn:uuid:88bdd6b0-ee45-4015-8ebc-b90d5d4cdd4a",
            "resource": {
              "resourceType": "Composition",
              "id": "88bdd6b0-ee45-4015-8ebc-b90d5d4cdd4a",
              "meta": {
                "profile": [
                  "http://fhir.abda.de/eRezeptAbgabedaten/StructureDefinition/DAV-PKV-PR-ERP-AbgabedatenComposition|1.2"
                ]
              },
              "status": "final",
              "type": {
                "coding": [
                  {
                    "system": "http://fhir.abda.de/eRezeptAbgabedaten/CodeSystem/DAV-CS-ERP-CompositionTypes",
                    "code": "ERezeptAbgabedaten"
                  }
                ]
              },
              "date": "2023-07-07T23:30:00Z",
              "author": [
                {
                  "reference": "urn:uuid:2abed40e-b730-4be2-a632-cfd5c446050c"
                }
              ],
              "title": "ERezeptAbgabedaten",
              "section": [
                {
                  "title": "Abgabeinformationen",
                  "entry": [
                    {
                      "reference": "urn:uuid:44b58a16-8093-4fed-97e2-23cce175df7a"
                    }
                  ]
                },
                {
                  "title": "Apotheke",
                  "entry": [
                    {
                      "reference": "urn:uuid:2abed40e-b730-4be2-a632-cfd5c446050c"
                    }
                  ]
                }
              ]
            }
          },
          {
            "fullUrl": "urn:uuid:2abed40e-b730-4be2-a632-cfd5c446050c",
            "resource": {
              "resourceType": "Organization",
              "id": "2abed40e-b730-4be2-a632-cfd5c446050c",
              "meta": {
                "profile": [
                  "http://fhir.abda.de/eRezeptAbgabedaten/StructureDefinition/DAV-PKV-PR-ERP-Apotheke|1.2"
                ]
              },
              "identifier": [
                {
                  "system": "http://fhir.de/sid/arge-ik/iknr",
                  "value": "308412345"
                }
              ],
              "name": "Adler-Apotheke",
              "address": [
                {
                  "type": "physical",
                  "line": [
                    "Taunusstraße 89"
                  ],
                  "_line": [
                    {
                      "extension": [
                        {
                          "url": "http://hl7.org/fhir/StructureDefinition/iso21090-ADXP-streetName",
                          "valueString": "Taunusstraße"
                        },
                        {
                          "url": "http://hl7.org/fhir/StructureDefinition/iso21090-ADXP-houseNumber",
                          "valueString": "89"
                        }
                      ]
                    }
                  ],
                  "city": "Langen",
                  "postalCode": "63225",
                  "country": "D"
                }
              ]
            }
          },
          {
            "fullUrl": "urn:uuid:44b58a16-8093-4fed-97e2-23cce175df7a",
            "resource": {
              "resourceType": "MedicationDispense",
              "id": "44b58a16-8093-4fed-97e2-23cce175df7a",
              "meta": {
                "profile": [
                  "http://fhir.abda.de/eRezeptAbgabedaten/StructureDefinition/DAV-PKV-PR-ERP-Abgabeinformationen|1.2"
                ]
              },
              "extension": [
                {
                  "url": "http://fhir.abda.de/eRezeptAbgabedaten/StructureDefinition/DAV-EX-ERP-Abrechnungszeilen",
                  "valueReference": {
                    "reference": "urn:uuid:095af0ea-8d64-4197-848d-c3e3f895a6e8"
                  }
                },
                {
                  "url": "http://fhir.abda.de/eRezeptAbgabedaten/StructureDefinition/DAV-PKV-EX-ERP-AbrechnungsTyp",
                  "valueCodeableConcept": {
                    "coding": [
                      {
                        "system": "http://fhir.abda.de/eRezeptAbgabedaten/CodeSystem/DAV-PKV-CS-ERP-AbrechnungsTyp",
                        "code": "1"
                      }
                    ]
                  }
                }
              ],
              "status": "completed",
              "medicationCodeableConcept": {
                "coding": [
                  {
                    "system": "http://terminology.hl7.org/CodeSystem/data-absent-reason",
                    "code": "not-applicable"
                  }
                ]
              },
              "performer": [
                {
                  "actor": {
                    "reference": "urn:uuid:2abed40e-b730-4be2-a632-cfd5c446050c"
                  }
                }
              ],
              "authorizingPrescription": [
                {
                  "identifier": {
                    "system": "https://gematik.de/fhir/erp/NamingSystem/GEM_ERP_NS_PrescriptionId",
                    "value": "200.334.138.469.717.92"
                  }
                }
              ],
              "type": {
                "coding": [
                  {
                    "system": "http://fhir.abda.de/eRezeptAbgabedaten/CodeSystem/DAV-CS-ERP-MedicationDispenseTyp",
                    "code": "Abgabeinformationen"
                  }
                ]
              },
              "whenHandedOver": "2023-07-07"
            }
          },
          {
            "fullUrl": "urn:uuid:095af0ea-8d64-4197-848d-c3e3f895a6e8",
            "resource": {
              "resourceType": "Invoice",
              "id": "095af0ea-8d64-4197-848d-c3e3f895a6e8",
              "meta": {
                "profile": [
                  "http://fhir.abda.de/eRezeptAbgabedaten/StructureDefinition/DAV-PKV-PR-ERP-Abrechnungszeilen|1.2"
                ]
              },
              "status": "issued",
              "type": {
                "coding": [
                  {
                    "system": "http://fhir.abda.de/eRezeptAbgabedaten/CodeSystem/DAV-CS-ERP-InvoiceTyp",
                    "code": "Abrechnungszeilen"
                  }
                ]
              },
              "lineItem": [
                {
                  "extension": [
                    {
                      "url": "http://fhir.abda.de/eRezeptAbgabedaten/StructureDefinition/DAV-EX-ERP-Zusatzattribute",
                      "extension": [
                        {
                          "url": "ZusatzattributZusaetzlicheAbgabeangaben",
                          "extension": [
                            {
                              "url": "Schluessel",
                              "valueBoolean": true
                            },
                            {
                              "url": "Gruppe",
                              "valueCodeableConcept": {
                                "coding": [
                                  {
                                    "system": "http://fhir.abda.de/eRezeptAbgabedaten/CodeSystem/DAV-CS-ERP-ZusatzattributGruppe",
                                    "code": "12"
                                  }
                                ]
                              }
                            },
                            {
                              "url": "DokumentationFreitext",
                              "valueString": "AEK = 14,00 €"
                            }
                          ]
                        }
                      ]
                    }
                  ],
                  "sequence": 1,
                  "chargeItemCodeableConcept": {
                    "coding": [
                      {
                        "system": "http://TA1.abda.de",
                        "code": "09999117"
                      }
                    ],
                    "text": "Einzelimport"
                  },
                  "priceComponent": [
                    {
                      "extension": [
                        {
                          "url": "http://fhir.abda.de/eRezeptAbgabedaten/StructureDefinition/DAV-EX-ERP-MwStSatz",
                          "valueDecimal": 19
                        },
                        {
                          "url": "http://fhir.abda.de/eRezeptAbgabedaten/StructureDefinition/DAV-EX-ERP-KostenVersicherter",
                          "extension": [
                            {
                              "url": "Kategorie",
                              "valueCodeableConcept": {
                                "coding": [
                                  {
                                    "system": "http://fhir.abda.de/eRezeptAbgabedaten/CodeSystem/DAV-PKV-CS-ERP-KostenVersicherterKategorie",
                                    "code": "0"
                                  }
                                ]
                              }
                            },
                            {
                              "url": "Kostenbetrag",
                              "valueMoney": {
                                "value": 0,
                                "currency": "EUR"
                              }
                            }
                          ]
                        }
                      ],
                      "type": "informational",
                      "factor": 1,
                      "amount": {
                        "value": 27.58,
                        "currency": "EUR"
                      }
                    }
                  ]
                },
                {
                  "sequence": 2,
                  "chargeItemCodeableConcept": {
                    "coding": [
                      {
                        "system": "http://TA1.abda.de",
                        "code": "09999637"
                      }
                    ],
                    "text": "Beschaffungskosten"
                  },
                  "priceComponent": [
                    {
                      "extension": [
                        {
                          "url": "http://fhir.abda.de/eRezeptAbgabedaten/StructureDefinition/DAV-EX-ERP-MwStSatz",
                          "valueDecimal": 19
                        },
                        {
                          "url": "http://fhir.abda.de/eRezeptAbgabedaten/StructureDefinition/DAV-EX-ERP-KostenVersicherter",
                          "extension": [
                            {
                              "url": "Kategorie",
                              "valueCodeableConcept": {
                                "coding": [
                                  {
                                    "system": "http://fhir.abda.de/eRezeptAbgabedaten/CodeSystem/DAV-PKV-CS-ERP-KostenVersicherterKategorie",
                                    "code": "0"
                                  }
                                ]
                              }
                            },
                            {
                              "url": "Kostenbetrag",
                              "valueMoney": {
                                "value": 0,
                                "currency": "EUR"
                              }
                            }
                          ]
                        }
                      ],
                      "type": "informational",
                      "factor": 1,
                      "amount": {
                        "value": 8.57,
                        "currency": "EUR"
                      }
                    }
                  ]
                }
              ],
              "totalGross": {
                "extension": [
                  {
                    "url": "http://fhir.abda.de/eRezeptAbgabedaten/StructureDefinition/DAV-EX-ERP-Gesamtzuzahlung",
                    "valueMoney": {
                      "value": 0,
                      "currency": "EUR"
                    }
                  }
                ],
                "value": 36.15,
                "currency": "EUR"
              }
            }
          }
        ],
        "signature": {
          "type": [
            {
              "system": "urn:iso-astm:E1762-95:2013",
              "code": "1.2.840.10065.1.12.1.1"
            }
          ],
          "when": "2023-07-30T10:40:00+00:00",
          "who": {
            "reference": "https://erp-ref.zentral.erp.splitdns.ti-dienste.de/Device/1"
          },
          "sigFormat": "application/pkcs7-mime",
          "data": "Y2RjMTVjNThkMzlkMjllNDdjMTk1MjIzNDlkODRjMThiNTliYTZkMGFhZmI5NGYyZjM2NDFkNGJiZTk1ODhiMQ=="
        }
      },
      "fullUrl": "urn:uuid:c8606712-0000-0000-0004-000000000000"
    },
    {
      "resource": {
        "resourceType": "Bundle",
        "id": "bbf3d648-ef6b-4d2b-a544-f8d2e27dea9a",
        "meta": {
          "profile": [
            "https://fhir.kbv.de/StructureDefinition/KBV_PR_ERP_Bundle|1.1.0"
          ]
        },
        "identifier": {
          "system": "https://gematik.de/fhir/erp/NamingSystem/GEM_ERP_NS_PrescriptionId",
          "value": "200.334.138.469.717.92"
        },
        "type": "document",
        "timestamp": "2023-07-03T08:30:00+00:00",
        "entry": [
          {
            "fullUrl": "http://pvs.praxis.local/fhir/Composition/c1f7e7f3-4d63-46e9-bec3-0270d5ef06b9",
            "resource": {
              "resourceType": "Composition",
              "id": "c1f7e7f3-4d63-46e9-bec3-0270d5ef06b9",
              "meta": {
                "profile": [
                  "https://fhir.kbv.de/StructureDefinition/KBV_PR_ERP_Composition|1.1.0"
                ]
              },
              "extension": [
                {
                  "url": "https://fhir.kbv.de/StructureDefinition/KBV_EX_FOR_Legal_basis",
                  "valueCoding": {
                    "system": "https://fhir.kbv.de/CodeSystem/KBV_CS_SFHIR_KBV_STATUSKENNZEICHEN",
                    "code": "00"
                  }
                },
                {
                  "url": "https://fhir.kbv.de/StructureDefinition/KBV_EX_FOR_PKV_Tariff",
                  "valueCoding": {
                    "system": "https://fhir.kbv.de/CodeSystem/KBV_CS_SFHIR_KBV_PKV_TARIFF",
                    "code": "01"
                  }
                }
              ],
              "status": "final",
              "type": {
                "coding": [
                  {
                    "system": "https://fhir.kbv.de/CodeSystem/KBV_CS_SFHIR_KBV_FORMULAR_ART",
                    "code": "e16A"
                  }
                ]
              },
              "subject": {
                "reference": "Patient/beb56e0f-b58c-4315-a581-a63a19b833ce"
              },
              "date": "2023-07-03T08:00:00Z",
              "author": [
                {
                  "reference": "Practitioner/d24be224-bd97-4afa-b9f0-a7852459fae4",
                  "type": "Practitioner"
                },
                {
                  "type": "Device",
                  "identifier": {
                    "system": "https://fhir.kbv.de/NamingSystem/KBV_NS_FOR_Pruefnummer",
                    "value": "Y/400/2107/36/999"
                  }
                }
              ],
              "title": "elektronische Arzneimittelverordnung",
              "custodian": {
                "reference": "Organization/7ada1ef5-fb46-4008-954b-d058fede890d"
              },
              "section": [
                {
                  "code": {
                    "coding": [
                      {
                        "system": "https://fhir.kbv.de/CodeSystem/KBV_CS_ERP_Section_Type",
                        "code": "Prescription"
                      }
                    ]
                  },
                  "entry": [
                    {
                      "reference": "MedicationRequest/bcb59a28-81c3-4903-aa10-db4612850eb3"
                    }
                  ]
                },
                {
                  "code": {
                    "coding": [
                      {
                        "system": "https://fhir.kbv.de/CodeSystem/KBV_CS_ERP_Section_Type",
                        "code": "Coverage"
                      }
                    ]
                  },
                  "entry": [
                    {
                      "reference": "Coverage/d1666048-7eb8-4669-b924-db5dc75c14e3"
                    }
                  ]
                }
              ]
            }
          },
          {
            "fullUrl": "http://pvs.praxis.local/fhir/MedicationRequest/bcb59a28-81c3-4903-aa10-db4612850eb3",
            "resource": {
              "resourceType": "MedicationRequest",
              "id": "bcb59a28-81c3-4903-aa10-db4612850eb3",
              "meta": {
                "profile": [
                  "https://fhir.kbv.de/StructureDefinition/KBV_PR_ERP_Prescription|1.1.0"
                ]
              },
              "extension": [
                {
                  "url": "https://fhir.kbv.de/StructureDefinition/KBV_EX_ERP_EmergencyServicesFee",
                  "valueBoolean": false
                },
                {
                  "url": "https://fhir.kbv.de/StructureDefinition/KBV_EX_ERP_BVG",
                  "valueBoolean": false
                },
                {
                  "url": "https://fhir.kbv.de/StructureDefinition/KBV_EX_ERP_Multiple_Prescription",
                  "extension": [
                    {
                      "url": "Kennzeichen",
                      "valueBoolean": false
                    }
                  ]
                }
              ],
              "status": "active",
              "intent": "order",
              "medicationReference": {
                "reference": "Medication/384dd10b-9069-4d2f-b030-85de55868d22"
              },
              "subject": {
                "reference": "Patient/beb56e0f-b58c-4315-a581-a63a19b833ce"
              },
              "authoredOn": "2023-07-03",
              "requester": {
                "reference": "Practitioner/d24be224-bd97-4afa-b9f0-a7852459fae4"
              },
              "insurance": [
                {
                  "reference": "Coverage/d1666048-7eb8-4669-b924-db5dc75c14e3"
                }
              ],
              "dosageInstruction": [
                {
                  "extension": [
                    {
                      "url": "https://fhir.kbv.de/StructureDefinition/KBV_EX_ERP_DosageFlag",
                      "valueBoolean": false
                    }
                  ]
                }
              ],
              "dispenseRequest": {
                "quantity": {
                  "value": 1,
                  "system": "http://unitsofmeasure.org",
                  "code": "{Package}"
                }
              },
              "substitution": {
                "allowedBoolean": false
              }
            }
          },
          {
            "fullUrl": "http://pvs.praxis.local/fhir/Medication/384dd10b-9069-4d2f-b030-85de55868d22",
            "resource": {
              "resourceType": "Medication",
              "id": "384dd10b-9069-4d2f-b030-85de55868d22",
              "meta": {
                "profile": [
                  "https://fhir.kbv.de/StructureDefinition/KBV_PR_ERP_Medication_FreeText|1.1.0"
                ]
              },
              "extension": [
                {
                  "url": "https://fhir.kbv.de/StructureDefinition/KBV_EX_ERP_Medication_Category",
                  "valueCoding": {
                    "system": "https://fhir.kbv.de/CodeSystem/KBV_CS_ERP_Medication_Category",
                    "code": "00"
                  }
                },
                {
                  "url": "https://fhir.kbv.de/StructureDefinition/KBV_EX_ERP_Medication_Vaccine",
                  "valueBoolean": false
                }
              ],
              "code": {
                "coding": [
                  {
                    "system": "https://fhir.kbv.de/CodeSystem/KBV_CS_ERP_Medication_Type",
                    "code": "freitext"
                  }
                ],
                "text": "Yellox 0,9 mg/ml Augentropfen"
              }
            }
          },
          {
            "fullUrl": "http://pvs.praxis.local/fhir/Patient/beb56e0f-b58c-4315-a581-a63a19b833ce",
            "resource": {
              "resourceType": "Patient",
              "id": "beb56e0f-b58c-4315-a581-a63a19b833ce",
              "meta": {
                "profile": [
                  "https://fhir.kbv.de/StructureDefinition/KBV_PR_FOR_Patient|1.1.0"
                ]
              },
              "identifier": [
                {
                  "type": {
                    "coding": [
                      {
                        "system": "http://fhir.de/CodeSystem/identifier-type-de-basis",
                        "code": "PKV"
                      }
                    ]
                  },
                  "system": "http://fhir.de/sid/pkv/kvid-10",
                  "value": "P123464237"
                }
              ],
              "name": [
                {
                  "use": "official",
                  "family": "Privati",
                  "_family": {
                    "extension": [
                      {
                        "url": "http://hl7.org/fhir/StructureDefinition/humanname-own-name",
                        "valueString": "Privati"
                      }
                    ]
                  },
                  "given": [
                    "Paolo"
                  ]
                }
              ],
              "birthDate": "1935-01-06",
              "address": [
                {
                  "type": "both",
                  "line": [
                    "Blumenweg 18"
                  ],
                  "_line": [
                    {
                      "extension": [
                        {
                          "url": "http://hl7.org/fhir/StructureDefinition/iso21090-ADXP-streetName",
                          "valueString": "Blumenweg"
                        },
                        {
                          "url": "http://hl7.org/fhir/StructureDefinition/iso21090-ADXP-houseNumber",
                          "valueString": "18"
                        }
                      ]
                    }
                  ],
                  "city": "Esens",
                  "postalCode": "26427",
                  "country": "D"
                }
              ]
            }
          },
          {
            "fullUrl": "http://pvs.praxis.local/fhir/Practitioner/d24be224-bd97-4afa-b9f0-a7852459fae4",
            "resource": {
              "resourceType": "Practitioner",
              "id": "d24be224-bd97-4afa-b9f0-a7852459fae4",
              "meta": {
                "profile": [
                  "https://fhir.kbv.de/StructureDefinition/KBV_PR_FOR_Practitioner|1.1.0"
                ]
              },
              "identifier": [
                {
                  "type": {
                    "coding": [
                      {
                        "system": "http://terminology.hl7.org/CodeSystem/v2-0203",
                        "code": "LANR"
                      }
                    ]
                  },
                  "system": "https://fhir.kbv.de/NamingSystem/KBV_NS_Base_ANR",
                  "value": "987789324"
                }
              ],
              "name": [
                {
                  "use": "official",
                  "family": "Alder",
                  "_family": {
                    "extension": [
                      {
                        "url": "http://hl7.org/fhir/StructureDefinition/humanname-own-name",
                        "valueString": "Alder"
                      }
                    ]
                  },
                  "given": [
                    "Ernst"
                  ]
                }
              ],
              "qualification": [
                {
                  "code": {
                    "coding": [
                      {
                        "system": "https://fhir.kbv.de/CodeSystem/KBV_CS_FOR_Qualification_Type",
                        "code": "00"
                      }
                    ]
                  }
                },
                {
                  "code": {
                    "coding": [
                      {
                        "system": "https://fhir.kbv.de/CodeSystem/KBV_CS_FOR_Berufsbezeichnung",
                        "code": "Berufsbezeichnung"
                      }
                    ],
                    "text": "Facharzt für Augenheilkunde"
                  }
                }
              ]
            }
          },
          {
            "fullUrl": "http://pvs.praxis.local/fhir/Organization/7ada1ef5-fb46-4008-954b-d058fede890d",
            "resource": {
              "resourceType": "Organization",
              "id": "7ada1ef5-fb46-4008-954b-d058fede890d",
              "meta": {
                "profile": [
                  "https://fhir.kbv.de/StructureDefinition/KBV_PR_FOR_Organization|1.1.0"
                ]
              },
              "identifier": [
                {
                  "type": {
                    "coding": [
                      {
                        "system": "http://terminology.hl7.org/CodeSystem/v2-0203",
                        "code": "BSNR"
                      }
                    ]
                  },
                  "system": "https://fhir.kbv.de/NamingSystem/KBV_NS_Base_BSNR",
                  "value": "721111100"
                }
              ],
              "name": "MVZ",
              "telecom": [
                {
                  "system": "phone",
                  "value": "030369258147"
                }
              ],
              "address": [
                {
                  "type": "both",
                  "line": [
                    "Herbert-Lewin-Platz 2"
                  ],
                  "_line": [
                    {
                      "extension": [
                        {
                          "url": "http://hl7.org/fhir/StructureDefinition/iso21090-ADXP-streetName",
                          "valueString": "Herbert-Lewin-Platz"
                        },
                        {
                          "url": "http://hl7.org/fhir/StructureDefinition/iso21090-ADXP-houseNumber",
                          "valueString": "2"
                        }
                      ]
                    }
                  ],
                  "city": "Berlin",
                  "postalCode": "10623",
                  "country": "D"
                }
              ]
            }
          },
          {
            "fullUrl": "http://pvs.praxis.local/fhir/Coverage/d1666048-7eb8-4669-b924-db5dc75c14e3",
            "resource": {
              "resourceType": "Coverage",
              "id": "d1666048-7eb8-4669-b924-db5dc75c14e3",
              "meta": {
                "profile": [
                  "https://fhir.kbv.de/StructureDefinition/KBV_PR_FOR_Coverage|1.1.0"
                ]
              },
              "extension": [
                {
                  "url": "http://fhir.de/StructureDefinition/gkv/besondere-personengruppe",
                  "valueCoding": {
                    "system": "https://fhir.kbv.de/CodeSystem/KBV_CS_SFHIR_KBV_PERSONENGRUPPE",
                    "code": "00"
                  }
                },
                {
                  "url": "http://fhir.de/StructureDefinition/gkv/dmp-kennzeichen",
                  "valueCoding": {
                    "system": "https://fhir.kbv.de/CodeSystem/KBV_CS_SFHIR_KBV_DMP",
                    "code": "00"
                  }
                },
                {
                  "url": "http://fhir.de/StructureDefinition/gkv/versichertenart",
                  "valueCoding": {
                    "system": "https://fhir.kbv.de/CodeSystem/KBV_CS_SFHIR_KBV_VERSICHERTENSTATUS",
                    "code": "1"
                  }
                }
              ],
              "status": "active",
              "type": {
                "coding": [
                  {
                    "system": "http://fhir.de/CodeSystem/versicherungsart-de-basis",
                    "code": "PKV"
                  }
                ]
              },
              "beneficiary": {
                "reference": "Patient/beb56e0f-b58c-4315-a581-a63a19b833ce"
              },
              "payor": [
                {
                  "identifier": {
                    "system": "http://fhir.de/sid/arge-ik/iknr",
                    "value": "123456789"
                  },
                  "display": "Allianz Private Krankenversicherung"
                }
              ]
            }
          }
        ],
        "signature": {
          "type": [
            {
              "system": "urn:iso-astm:E1762-95:2013",
              "code": "1.2.840.10065.1.12.1.1"
            }
          ],
          "when": "2023-07-30T10:40:00+00:00",
          "who": {
            "reference": "https://erp-ref.zentral.erp.splitdns.ti-dienste.de/Device/1"
          },
          "sigFormat": "application/pkcs7-mime",
          "data": "Y2RjMTVjNThkMzlkMjllNDdjMTk1MjIzNDlkODRjMThiNTliYTZkMGFhZmI5NGYyZjM2NDFkNGJiZTk1ODhiMQ=="
        }
      },
      "fullUrl": "urn:uuid:c8606712-0000-0000-0001-000000000000"
    }
  ]
}
