{
  "resourceType": "Bundle",
  "type": "collection",
  "entry": [
    {
      "resource": {
        "resourceType": "ChargeItem",
        "id": "200.625.688.123.368.48",
        "meta": {
          "profile": [
            "https://gematik.de/fhir/erpchrg/StructureDefinition/GEM_ERPCHRG_PR_ChargeItem|1.0"
          ]
        },
        "identifier": [
          {
            "system": "https://gematik.de/fhir/erp/NamingSystem/GEM_ERP_NS_PrescriptionId",
            "value": "200.625.688.123.368.48"
          },
          {
            "system": "https://gematik.de/fhir/erp/NamingSystem/GEM_ERP_NS_AccessCode",
            "value": "abd4afed9f3f458114fc3407878213e110f238d1afa919fbed7282abbef68bfd"
          }
        ],
        "status": "billable",
        "code": {
          "coding": [
            {
              "system": "http://terminology.hl7.org/CodeSystem/data-absent-reason",
              "code": "not-applicable"
            }
          ]
        },
        "subject": {
          "identifier": {
            "system": "http://fhir.de/sid/pkv/kvid-10",
            "value": "X110465770"
          }
        },
        "enterer": {
          "identifier": {
            "system": "https://gematik.de/fhir/sid/telematik-id",
            "value": "3-SMC-B-Testkarte-883110000116873"
          }
        },
        "enteredDate": "2023-02-23T15:08:32.699+00:00",
        "supportingInformation": [
          {
            "reference": "urn:uuid:c8606712-0000-0000-0001-000000000000",
            "display": "https://fhir.kbv.de/StructureDefinition/KBV_PR_ERP_Bundle"
          },
          {
            "reference": "urn:uuid:c8606712-0000-0000-0004-000000000000",
            "display": "http://fhir.abda.de/eRezeptAbgabedaten/StructureDefinition/DAV-PKV-PR-ERP-AbgabedatenBundle"
          },
          {
            "reference": "urn:uuid:c8606712-0000-0000-0003-000000000000",
            "display": "https://gematik.de/fhir/erp/StructureDefinition/GEM_ERP_PR_Bundle"
          }
        ]
      }
    },
    {
      "resource": {
        "resourceType": "Bundle",
        "id": "c8606712-0000-0000-0003-000000000000",
        "meta": {
          "profile": [
            "https://gematik.de/fhir/erp/StructureDefinition/GEM_ERP_PR_Bundle|1.2"
          ]
        },
        "identifier": {
          "system": "https://gematik.de/fhir/erp/NamingSystem/GEM_ERP_NS_PrescriptionId",
          "value": "200.000.001.206.112.29"
        },
        "type": "document",
        "timestamp": "2023-02-23T15:08:30.803+00:00",
        "link": [
          {
            "relation": "self",
            "url": "https://erp-dev.zentral.erp.splitdns.ti-dienste.de/Task/200.000.001.206.112.29/$close/"
          }
        ],
        "entry": [
          {
            "fullUrl": "urn:uuid:1f107ad7-f4bf-47e3-a606-0181f5dd4f73",
            "resource": {
              "resourceType": "Composition",
              "id": "1f107ad7-f4bf-47e3-a606-0181f5dd4f73",
              "meta": {
                "profile": [
                  "https://gematik.de/fhir/erp/StructureDefinition/GEM_ERP_PR_Composition|1.2"
                ]
              },
              "extension": [
                {
                  "url": "https://gematik.de/fhir/erp/StructureDefinition/GEM_ERP_EX_Beneficiary",
                  "valueIdentifier": {
                    "system": "https://gematik.de/fhir/sid/telematik-id",
                    "value": "3-SMC-B-Testkarte-883110000116873"
                  }
                }
              ],
              "status": "final",
              "type": {
                "coding": [
                  {
                    "system": "https://gematik.de/fhir/erp/CodeSystem/GEM_ERP_CS_DocumentType",
                    "code": "3",
                    "display": "Receipt"
                  }
                ]
              },
              "date": "2023-02-23T15:08:30.802+00:00",
              "author": [
                {
                  "reference": "https://erp-dev.zentral.erp.splitdns.ti-dienste.de/Device/1"
                }
              ],
              "title": "Quittung",
              "event": [
                {
                  "period": {
                    "start": "2023-02-23T15:08:29.843+00:00",
                    "end": "2023-02-23T15:08:30.802+00:00"
                  }
                }
              ],
              "section": [
                {
                  "entry": [
                    {
                      "reference": "Binary/PrescriptionDigest-200.000.001.206.112.29"
                    }
                  ]
                }
              ]
            }
          },
          {
            "fullUrl": "https://erp-dev.zentral.erp.splitdns.ti-dienste.de/Device/1",
            "resource": {
              "resourceType": "Device",
              "id": "1",
              "meta": {
                "profile": [
                  "https://gematik.de/fhir/erp/StructureDefinition/GEM_ERP_PR_Device|1.2"
                ]
              },
              "status": "active",
              "serialNumber": "1.9.0",
              "deviceName": [
                {
                  "name": "E-Rezept Fachdienst",
                  "type": "user-friendly-name"
                }
              ],
              "version": [
                {
                  "value": "1.9.0"
                }
              ],
              "contact": [
                {
                  "system": "email",
                  "value": "betrieb@gematik.de"
                }
              ]
            }
          },
          {
            "fullUrl": "https://erp-dev.zentral.erp.splitdns.ti-dienste.de/Binary/PrescriptionDigest-200.000.001.206.112.29",
            "resource": {
              "resourceType": "Binary",
              "id": "PrescriptionDigest-200.000.001.206.112.29",
              "meta": {
                "versionId": "1",
                "profile": [
                  "https://gematik.de/fhir/erp/StructureDefinition/GEM_ERP_PR_Digest|1.2"
                ]
              },
              "contentType": "application/octet-stream",
              "data": "aYDkjPosw3Sa5dX5EmSghwhVg7d9jhoXHdwszETXV/8="
            }
          }
        ],
        "signature": {
          "type": [
            {
              "system": "urn:iso-astm:E1762-95:2013",
              "code": "1.2.840.10065.1.12.1.1"
            }
          ],
          "when": "2023-02-23T15:08:32.985+00:00",
          "who": {
            "reference": "https://erp-dev.zentral.erp.splitdns.ti-dienste.de/Device/1"
          },
          "sigFormat": "application/pkcs7-mime",
          "data": "MIIUnAYJKoZIhvcNAQcCoIIUjTCCFIkCAQUxDTALBglghkgBZQMEAgEwggp1"
        }
      },
      "fullUrl": "urn:uuid:c8606712-0000-0000-0003-000000000000"
    },
    {
      "resource": {
        "resourceType": "Bundle",
        "id": "c542f1c4-b177-4366-865c-182b6e0dea4a",
        "meta": {
          "profile": [
            "https://fhir.kbv.de/StructureDefinition/KBV_PR_ERP_Bundle|1.1.0"
          ]
        },
        "identifier": {
          "system": "https://gematik.de/fhir/erp/NamingSystem/GEM_ERP_NS_PrescriptionId",
          "value": "200.625.688.123.368.48"
        },
        "type": "document",
        "timestamp": "2023-07-03T08:30:00+00:00",
        "entry": [
          {
            "fullUrl": "http://pvs.praxis.local/fhir/Composition/fd2503b8-ffff-444a-ba90-93c287426054",
            "resource": {
              "resourceType": "Composition",
              "id": "fd2503b8-ffff-444a-ba90-93c287426054",
              "meta": {
                "profile": [
                  "https://fhir.kbv.de/StructureDefinition/KBV_PR_ERP_Composition|1.1.0"
                ]
              },
              "extension": [
                {
                  "url": "https://fhir.kbv.de/StructureDefinition/KBV_EX_FOR_Legal_basis",
                  "valueCoding": {
                    "system": "https://fhir.kbv.de/CodeSystem/KBV_CS_SFHIR_KBV_STATUSKENNZEICHEN",
                    "code": "00"
                  }
                },
                {
                  "url": "https://fhir.kbv.de/StructureDefinition/KBV_EX_FOR_PKV_Tariff",
                  "valueCoding": {
                    "system": "https://fhir.kbv.de/CodeSystem/KBV_CS_SFHIR_KBV_PKV_TARIFF",
                    "code": "01"
                  }
                }
              ],
              "status": "final",
              "type": {
                "coding": [
                  {
                    "system": "https://fhir.kbv.de/CodeSystem/KBV_CS_SFHIR_KBV_FORMULAR_ART",
                    "code": "e16A"
                  }
                ]
              },
              "subject": {
                "reference": "Patient/9a42c3c0-2429-45bd-81e6-7ac7af1e4a8c"
              },
              "date": "2023-07-03T08:00:00Z",
              "author": [
                {
                  "reference": "Practitioner/53c7d0f0-351e-4fc1-8930-88207404dcb7",
                  "type": "Practitioner"
                },
                {
                  "type": "Device",
                  "identifier": {
                    "system": "https://fhir.kbv.de/NamingSystem/KBV_NS_FOR_Pruefnummer",
                    "value": "Y/400/2107/36/999"
                  }
                }
              ],
              "title": "elektronische Arzneimittelverordnung",
              "attester": [
                {
                  "mode": "legal",
                  "party": {
                    "reference": "Practitioner/c91e7bd8-50f4-4077-9a14-b8093e4d6e73"
                  }
                }
              ],
              "custodian": {
                "reference": "Organization/4a0722b8-8107-4b15-bd2d-39eb3a6cb21d"
              },
              "section": [
                {
                  "code": {
                    "coding": [
                      {
                        "system": "https://fhir.kbv.de/CodeSystem/KBV_CS_ERP_Section_Type",
                        "code": "Prescription"
                      }
                    ]
                  },
                  "entry": [
                    {
                      "reference": "MedicationRequest/741c4057-5f23-4dae-9b9d-d2854b138798"
                    }
                  ]
                },
                {
                  "code": {
                    "coding": [
                      {
                        "system": "https://fhir.kbv.de/CodeSystem/KBV_CS_ERP_Section_Type",
                        "code": "Coverage"
                      }
                    ]
                  },
                  "entry": [
                    {
                      "reference": "Coverage/aadd42d3-791d-4030-ac24-5dbac7421796"
                    }
                  ]
                }
              ]
            }
          },
          {
            "fullUrl": "http://pvs.praxis.local/fhir/MedicationRequest/741c4057-5f23-4dae-9b9d-d2854b138798",
            "resource": {
              "resourceType": "MedicationRequest",
              "id": "741c4057-5f23-4dae-9b9d-d2854b138798",
              "meta": {
                "profile": [
                  "https://fhir.kbv.de/StructureDefinition/KBV_PR_ERP_Prescription|1.1.0"
                ]
              },
              "extension": [
                {
                  "url": "https://fhir.kbv.de/StructureDefinition/KBV_EX_ERP_EmergencyServicesFee",
                  "valueBoolean": false
                },
                {
                  "url": "https://fhir.kbv.de/StructureDefinition/KBV_EX_ERP_BVG",
                  "valueBoolean": false
                },
                {
                  "url": "https://fhir.kbv.de/StructureDefinition/KBV_EX_ERP_Multiple_Prescription",
                  "extension": [
                    {
                      "url": "Kennzeichen",
                      "valueBoolean": false
                    }
                  ]
                }
              ],
              "status": "active",
              "intent": "order",
              "medicationReference": {
                "reference": "Medication/e93cad35-e6cd-459f-b349-5499a802bd9f"
              },
              "subject": {
                "reference": "Patient/9a42c3c0-2429-45bd-81e6-7ac7af1e4a8c"
              },
              "authoredOn": "2023-07-03",
              "requester": {
                "reference": "Practitioner/53c7d0f0-351e-4fc1-8930-88207404dcb7"
              },
              "insurance": [
                {
                  "reference": "Coverage/aadd42d3-791d-4030-ac24-5dbac7421796"
                }
              ],
              "note": [
                {
                  "text": "Bitte auf Anwendung schulen"
                }
              ],
              "dosageInstruction": [
                {
                  "extension": [
                    {
                      "url": "https://fhir.kbv.de/StructureDefinition/KBV_EX_ERP_DosageFlag",
                      "valueBoolean": false
                    }
                  ]
                }
              ],
              "dispenseRequest": {
                "quantity": {
                  "value": 2,
                  "system": "http://unitsofmeasure.org",
                  "code": "{Package}"
                }
              },
              "substitution": {
                "allowedBoolean": true
              }
            }
          },
          {
            "fullUrl": "http://pvs.praxis.local/fhir/Medication/e93cad35-e6cd-459f-b349-5499a802bd9f",
            "resource": {
              "resourceType": "Medication",
              "id": "e93cad35-e6cd-459f-b349-5499a802bd9f",
              "meta": {
                "profile": [
                  "https://fhir.kbv.de/StructureDefinition/KBV_PR_ERP_Medication_PZN|1.1.0"
                ]
              },
              "extension": [
                {
                  "url": "https://fhir.kbv.de/StructureDefinition/KBV_EX_Base_Medication_Type",
                  "valueCodeableConcept": {
                    "coding": [
                      {
                        "system": "http://snomed.info/sct",
                        "version": "http://snomed.info/sct/900000000000207008/version/20220331",
                        "code": "763158003",
                        "display": "Medicinal product (product)"
                      }
                    ]
                  }
                },
                {
                  "url": "https://fhir.kbv.de/StructureDefinition/KBV_EX_ERP_Medication_Category",
                  "valueCoding": {
                    "system": "https://fhir.kbv.de/CodeSystem/KBV_CS_ERP_Medication_Category",
                    "code": "00"
                  }
                },
                {
                  "url": "https://fhir.kbv.de/StructureDefinition/KBV_EX_ERP_Medication_Vaccine",
                  "valueBoolean": false
                },
                {
                  "url": "http://fhir.de/StructureDefinition/normgroesse",
                  "valueCode": "N1"
                }
              ],
              "code": {
                "coding": [
                  {
                    "system": "http://fhir.de/CodeSystem/ifa/pzn",
                    "code": "00427833"
                  }
                ],
                "text": "Viani 50µg/250µg 1 Diskus 60 ED N1"
              },
              "form": {
                "coding": [
                  {
                    "system": "https://fhir.kbv.de/CodeSystem/KBV_CS_SFHIR_KBV_DARREICHUNGSFORM",
                    "code": "IHP"
                  }
                ]
              },
              "amount": {
                "numerator": {
                  "extension": [
                    {
                      "url": "https://fhir.kbv.de/StructureDefinition/KBV_EX_ERP_Medication_PackagingSize",
                      "valueString": "1"
                    }
                  ],
                  "unit": "Diskus"
                },
                "denominator": {
                  "value": 1
                }
              }
            }
          },
          {
            "fullUrl": "http://pvs.praxis.local/fhir/Patient/9a42c3c0-2429-45bd-81e6-7ac7af1e4a8c",
            "resource": {
              "resourceType": "Patient",
              "id": "9a42c3c0-2429-45bd-81e6-7ac7af1e4a8c",
              "meta": {
                "profile": [
                  "https://fhir.kbv.de/StructureDefinition/KBV_PR_FOR_Patient|1.1.0"
                ]
              },
              "identifier": [
                {
                  "type": {
                    "coding": [
                      {
                        "system": "http://fhir.de/CodeSystem/identifier-type-de-basis",
                        "code": "PKV"
                      }
                    ]
                  },
                  "system": "http://fhir.de/sid/pkv/kvid-10",
                  "value": "P123464113"
                }
              ],
              "name": [
                {
                  "use": "official",
                  "family": "Privati",
                  "_family": {
                    "extension": [
                      {
                        "url": "http://hl7.org/fhir/StructureDefinition/humanname-own-name",
                        "valueString": "Privati"
                      }
                    ]
                  },
                  "given": [
                    "Paula"
                  ]
                }
              ],
              "birthDate": "1935-06-22",
              "address": [
                {
                  "type": "both",
                  "line": [
                    "Blumenweg 18"
                  ],
                  "_line": [
                    {
                      "extension": [
                        {
                          "url": "http://hl7.org/fhir/StructureDefinition/iso21090-ADXP-streetName",
                          "valueString": "Blumenweg"
                        },
                        {
                          "url": "http://hl7.org/fhir/StructureDefinition/iso21090-ADXP-houseNumber",
                          "valueString": "18"
                        }
                      ]
                    }
                  ],
                  "city": "Esens",
                  "postalCode": "26427",
                  "country": "D"
                }
              ]
            }
          },
          {
            "fullUrl": "http://pvs.praxis.local/fhir/Practitioner/53c7d0f0-351e-4fc1-8930-88207404dcb7",
            "resource": {
              "resourceType": "Practitioner",
              "id": "53c7d0f0-351e-4fc1-8930-88207404dcb7",
              "meta": {
                "profile": [
                  "https://fhir.kbv.de/StructureDefinition/KBV_PR_FOR_Practitioner|1.1.0"
                ]
              },
              "identifier": [
                {
                  "type": {
                    "coding": [
                      {
                        "system": "http://terminology.hl7.org/CodeSystem/v2-0203",
                        "code": "LANR"
                      }
                    ]
                  },
                  "system": "https://fhir.kbv.de/NamingSystem/KBV_NS_Base_ANR",
                  "value": "895268385"
                }
              ],
              "name": [
                {
                  "use": "official",
                  "family": "Fischer",
                  "_family": {
                    "extension": [
                      {
                        "url": "http://hl7.org/fhir/StructureDefinition/humanname-own-name",
                        "valueString": "Fischer"
                      }
                    ]
                  },
                  "given": [
                    "Alexander"
                  ]
                }
              ],
              "qualification": [
                {
                  "code": {
                    "coding": [
                      {
                        "system": "https://fhir.kbv.de/CodeSystem/KBV_CS_FOR_Qualification_Type",
                        "code": "03"
                      }
                    ]
                  }
                },
                {
                  "code": {
                    "coding": [
                      {
                        "system": "https://fhir.kbv.de/CodeSystem/KBV_CS_FOR_Berufsbezeichnung",
                        "code": "Berufsbezeichnung"
                      }
                    ],
                    "text": "Weiterbildungsassistent"
                  }
                }
              ]
            }
          },
          {
            "fullUrl": "http://pvs.praxis.local/fhir/Practitioner/c91e7bd8-50f4-4077-9a14-b8093e4d6e73",
            "resource": {
              "resourceType": "Practitioner",
              "id": "c91e7bd8-50f4-4077-9a14-b8093e4d6e73",
              "meta": {
                "profile": [
                  "https://fhir.kbv.de/StructureDefinition/KBV_PR_FOR_Practitioner|1.1.0"
                ]
              },
              "identifier": [
                {
                  "type": {
                    "coding": [
                      {
                        "system": "http://terminology.hl7.org/CodeSystem/v2-0203",
                        "code": "LANR"
                      }
                    ]
                  },
                  "system": "https://fhir.kbv.de/NamingSystem/KBV_NS_Base_ANR",
                  "value": "987654423"
                },
                {
                  "type": {
                    "coding": [
                      {
                        "system": "http://terminology.hl7.org/CodeSystem/v2-0203",
                        "code": "PRN"
                      }
                    ]
                  },
                  "system": "https://gematik.de/fhir/sid/telematik-id",
                  "value": "1-748382202"
                }
              ],
              "name": [
                {
                  "use": "official",
                  "family": "Schneider",
                  "_family": {
                    "extension": [
                      {
                        "url": "http://hl7.org/fhir/StructureDefinition/humanname-own-name",
                        "valueString": "Schneider"
                      }
                    ]
                  },
                  "given": [
                    "Emma"
                  ],
                  "prefix": [
                    "Dr. med."
                  ],
                  "_prefix": [
                    {
                      "extension": [
                        {
                          "url": "http://hl7.org/fhir/StructureDefinition/iso21090-EN-qualifier",
                          "valueCode": "AC"
                        }
                      ]
                    }
                  ]
                }
              ],
              "qualification": [
                {
                  "code": {
                    "coding": [
                      {
                        "system": "https://fhir.kbv.de/CodeSystem/KBV_CS_FOR_Qualification_Type",
                        "code": "00"
                      }
                    ]
                  }
                },
                {
                  "code": {
                    "coding": [
                      {
                        "system": "https://fhir.kbv.de/CodeSystem/KBV_CS_FOR_Berufsbezeichnung",
                        "code": "Berufsbezeichnung"
                      }
                    ],
                    "text": "Fachärztin für Innere Medizin"
                  }
                }
              ]
            }
          },
          {
            "fullUrl": "http://pvs.praxis.local/fhir/Organization/4a0722b8-8107-4b15-bd2d-39eb3a6cb21d",
            "resource": {
              "resourceType": "Organization",
              "id": "4a0722b8-8107-4b15-bd2d-39eb3a6cb21d",
              "meta": {
                "profile": [
                  "https://fhir.kbv.de/StructureDefinition/KBV_PR_FOR_Organization|1.1.0"
                ]
              },
              "identifier": [
                {
                  "type": {
                    "coding": [
                      {
                        "system": "http://terminology.hl7.org/CodeSystem/v2-0203",
                        "code": "BSNR"
                      }
                    ]
                  },
                  "system": "https://fhir.kbv.de/NamingSystem/KBV_NS_Base_BSNR",
                  "value": "721111100"
                }
              ],
              "name": "MVZ",
              "telecom": [
                {
                  "system": "phone",
                  "value": "0301234567"
                },
                {
                  "system": "fax",
                  "value": "030123456789"
                },
                {
                  "system": "email",
                  "value": "mvz@e-mail.de"
                }
              ],
              "address": [
                {
                  "type": "both",
                  "line": [
                    "Herbert-Lewin-Platz 2"
                  ],
                  "_line": [
                    {
                      "extension": [
                        {
                          "url": "http://hl7.org/fhir/StructureDefinition/iso21090-ADXP-streetName",
                          "valueString": "Herbert-Lewin-Platz"
                        },
                        {
                          "url": "http://hl7.org/fhir/StructureDefinition/iso21090-ADXP-houseNumber",
                          "valueString": "2"
                        }
                      ]
                    }
                  ],
                  "city": "Berlin",
                  "postalCode": "10623",
                  "country": "D"
                }
              ]
            }
          },
          {
            "fullUrl": "http://pvs.praxis.local/fhir/Coverage/aadd42d3-791d-4030-ac24-5dbac7421796",
            "resource": {
              "resourceType": "Coverage",
              "id": "aadd42d3-791d-4030-ac24-5dbac7421796",
              "meta": {
                "profile": [
                  "https://fhir.kbv.de/StructureDefinition/KBV_PR_FOR_Coverage|1.1.0"
                ]
              },
              "extension": [
                {
                  "url": "http://fhir.de/StructureDefinition/gkv/besondere-personengruppe",
                  "valueCoding": {
                    "system": "https://fhir.kbv.de/CodeSystem/KBV_CS_SFHIR_KBV_PERSONENGRUPPE",
                    "code": "00"
                  }
                },
                {
                  "url": "http://fhir.de/StructureDefinition/gkv/dmp-kennzeichen",
                  "valueCoding": {
                    "system": "https://fhir.kbv.de/CodeSystem/KBV_CS_SFHIR_KBV_DMP",
                    "code": "00"
                  }
                },
                {
                  "url": "http://fhir.de/StructureDefinition/gkv/versichertenart",
                  "valueCoding": {
                    "system": "https://fhir.kbv.de/CodeSystem/KBV_CS_SFHIR_KBV_VERSICHERTENSTATUS",
                    "code": "1"
                  }
                }
              ],
              "status": "active",
              "type": {
                "coding": [
                  {
                    "system": "http://fhir.de/CodeSystem/versicherungsart-de-basis",
                    "code": "PKV"
                  }
                ]
              },
              "beneficiary": {
                "reference": "Patient/9a42c3c0-2429-45bd-81e6-7ac7af1e4a8c"
              },
              "payor": [
                {
                  "identifier": {
                    "system": "http://fhir.de/sid/arge-ik/iknr",
                    "value": "123456789"
                  },
                  "display": "Allianz Private Krankenversicherung"
                }
              ]
            }
          }
        ],
        "signature": {
          "type": [
            {
              "system": "urn:iso-astm:E1762-95:2013",
              "code": "1.2.840.10065.1.12.1.1"
            }
          ],
          "when": "2023-07-30T10:40:00+00:00",
          "who": {
            "reference": "https://erp-ref.zentral.erp.splitdns.ti-dienste.de/Device/1"
          },
          "sigFormat": "application/pkcs7-mime",
          "data": "Y2RjMTVjNThkMzlkMjllNDdjMTk1MjIzNDlkODRjMThiNTliYTZkMGFhZmI5NGYyZjM2NDFkNGJiZTk1ODhiMQ=="
        }
      },
      "fullUrl": "urn:uuid:c8606712-0000-0000-0001-000000000000"
    },
    {
      "resource": {
        "resourceType": "MedicationDispense",
        "id": "fc1e90ca-56d6-46c7-91c2-b0c94ec7d3f5",
        "meta": {
          "profile": [
            "https://gematik.de/fhir/erp/StructureDefinition/GEM_ERP_PR_MedicationDispense|1.2"
          ],
          "tag": [
            {
              "display": "Beispiel MedicationDispense PKV PZN Bsp 5"
            }
          ]
        },
        "contained": [
          {
            "resourceType": "Medication",
            "id": "c96ea92e-80f0-4933-8e0d-f82575d09011",
            "meta": {
              "profile": [
                "https://fhir.kbv.de/StructureDefinition/KBV_PR_ERP_Medication_PZN|1.1.0"
              ]
            },
            "extension": [
              {
                "url": "https://fhir.kbv.de/StructureDefinition/KBV_EX_Base_Medication_Type",
                "valueCodeableConcept": {
                  "coding": [
                    {
                      "system": "http://snomed.info/sct",
                      "version": "http://snomed.info/sct/900000000000207008/version/20220331",
                      "code": "763158003",
                      "display": "Medicinal product (product)"
                    }
                  ]
                }
              },
              {
                "url": "https://fhir.kbv.de/StructureDefinition/KBV_EX_ERP_Medication_Category",
                "valueCoding": {
                  "system": "https://fhir.kbv.de/CodeSystem/KBV_CS_ERP_Medication_Category",
                  "code": "00"
                }
              },
              {
                "url": "https://fhir.kbv.de/StructureDefinition/KBV_EX_ERP_Medication_Vaccine",
                "valueBoolean": false
              },
              {
                "url": "http://fhir.de/StructureDefinition/normgroesse",
                "valueCode": "N1"
              }
            ],
            "code": {
              "coding": [
                {
                  "system": "http://fhir.de/CodeSystem/ifa/pzn",
                  "code": "00427833"
                }
              ],
              "text": "Viani 50µg/250µg 1 Diskus 60 ED N1"
            },
            "form": {
              "coding": [
                {
                  "system": "https://fhir.kbv.de/CodeSystem/KBV_CS_SFHIR_KBV_DARREICHUNGSFORM",
                  "code": "IHP"
                }
              ]
            },
            "amount": {
              "numerator": {
                "extension": [
                  {
                    "url": "https://fhir.kbv.de/StructureDefinition/KBV_EX_ERP_Medication_PackagingSize",
                    "valueString": "1"
                  }
                ],
                "unit": "Diskus"
              },
              "denominator": {
                "value": 1
              }
            },
            "batch": {
              "lotNumber": "A123456789-1",
              "expirationDate": "2024-12-31"
            }
          }
        ],
        "identifier": [
          {
            "system": "https://gematik.de/fhir/erp/NamingSystem/GEM_ERP_NS_PrescriptionId",
            "value": "200.625.688.123.368.48"
          }
        ],
        "status": "completed",
        "medicationReference": {
          "reference": "#c96ea92e-80f0-4933-8e0d-f82575d09011",
          "display": "Viani 50µg/250µg 1 Diskus 60 ED N1"
        },
        "subject": {
          "identifier": {
            "system": "http://fhir.de/sid/pkv/kvid-10",
            "value": "P123464113"
          }
        },
        "performer": [
          {
            "actor": {
              "identifier": {
                "system": "https://gematik.de/fhir/sid/telematik-id",
                "value": "3-abc-1234567890"
              }
            }
          }
        ],
        "quantity": {
          "value": 2,
          "system": "http://unitsofmeasure.org",
          "code": "{Package}"
        },
        "whenHandedOver": "2023-07-03"
      }
    },
    {
      "resource": {
        "resourceType": "Bundle",
        "id": "d7d23c7e-00a6-400b-a3dd-d158473a5554",
        "meta": {
          "profile": [
            "http://fhir.abda.de/eRezeptAbgabedaten/StructureDefinition/DAV-PKV-PR-ERP-AbgabedatenBundle|1.2"
          ],
          "tag": [
            {
              "display": "Beispiel RezeptAbgabedatenPKV Bundle (PZN-5)"
            },
            {
              "display": "ACHTUNG! Der fachlich korrekte Inhalt der Beispielinstanz kann nicht gewährleistet werden. Wir sind jederzeit dankbar für Hinweise auf Fehler oder für Verbesserungsvorschläge."
            }
          ]
        },
        "identifier": {
          "system": "https://gematik.de/fhir/erp/NamingSystem/GEM_ERP_NS_PrescriptionId",
          "value": "200.625.688.123.368.48"
        },
        "type": "document",
        "timestamp": "2023-07-03T11:30:00+00:00",
        "entry": [
          {
            "fullUrl": "urn:uuid:ff6dd6d4-a95c-495e-8bac-c848ee5d58f0",
            "resource": {
              "resourceType": "Composition",
              "id": "ff6dd6d4-a95c-495e-8bac-c848ee5d58f0",
              "meta": {
                "profile": [
                  "http://fhir.abda.de/eRezeptAbgabedaten/StructureDefinition/DAV-PKV-PR-ERP-AbgabedatenComposition|1.2"
                ]
              },
              "status": "final",
              "type": {
                "coding": [
                  {
                    "system": "http://fhir.abda.de/eRezeptAbgabedaten/CodeSystem/DAV-CS-ERP-CompositionTypes",
                    "code": "ERezeptAbgabedaten"
                  }
                ]
              },
              "date": "2023-07-03T11:30:00Z",
              "author": [
                {
                  "reference": "urn:uuid:7fef5bd2-b886-4dbb-84e9-6a257b018855"
                }
              ],
              "title": "ERezeptAbgabedaten",
              "section": [
                {
                  "title": "Abgabeinformationen",
                  "entry": [
                    {
                      "reference": "urn:uuid:f515c1dd-0d18-4166-80c0-5eba3845a1f1"
                    }
                  ]
                },
                {
                  "title": "Apotheke",
                  "entry": [
                    {
                      "reference": "urn:uuid:7fef5bd2-b886-4dbb-84e9-6a257b018855"
                    }
                  ]
                }
              ]
            }
          },
          {
            "fullUrl": "urn:uuid:7fef5bd2-b886-4dbb-84e9-6a257b018855",
            "resource": {
              "resourceType": "Organization",
              "id": "7fef5bd2-b886-4dbb-84e9-6a257b018855",
              "meta": {
                "profile": [
                  "http://fhir.abda.de/eRezeptAbgabedaten/StructureDefinition/DAV-PKV-PR-ERP-Apotheke|1.2"
                ]
              },
              "identifier": [
                {
                  "system": "http://fhir.de/sid/arge-ik/iknr",
                  "value": "308412345"
                }
              ],
              "name": "Adler-Apotheke",
              "address": [
                {
                  "type": "physical",
                  "line": [
                    "Taunusstraße 89"
                  ],
                  "_line": [
                    {
                      "extension": [
                        {
                          "url": "http://hl7.org/fhir/StructureDefinition/iso21090-ADXP-streetName",
                          "valueString": "Taunusstraße"
                        },
                        {
                          "url": "http://hl7.org/fhir/StructureDefinition/iso21090-ADXP-houseNumber",
                          "valueString": "89"
                        }
                      ]
                    }
                  ],
                  "city": "Langen",
                  "postalCode": "63225",
                  "country": "D"
                }
              ]
            }
          },
          {
            "fullUrl": "urn:uuid:f515c1dd-0d18-4166-80c0-5eba3845a1f1",
            "resource": {
              "resourceType": "MedicationDispense",
              "id": "f515c1dd-0d18-4166-80c0-5eba3845a1f1",
              "meta": {
                "profile": [
                  "http://fhir.abda.de/eRezeptAbgabedaten/StructureDefinition/DAV-PKV-PR-ERP-Abgabeinformationen|1.2"
                ]
              },
              "extension": [
                {
                  "url": "http://fhir.abda.de/eRezeptAbgabedaten/StructureDefinition/DAV-EX-ERP-Abrechnungszeilen",
                  "valueReference": {
                    "reference": "urn:uuid:b7a0732b-4162-4ec3-85c4-888191c97cb1"
                  }
                },
                {
                  "url": "http://fhir.abda.de/eRezeptAbgabedaten/StructureDefinition/DAV-PKV-EX-ERP-AbrechnungsTyp",
                  "valueCodeableConcept": {
                    "coding": [
                      {
                        "system": "http://fhir.abda.de/eRezeptAbgabedaten/CodeSystem/DAV-PKV-CS-ERP-AbrechnungsTyp",
                        "code": "1"
                      }
                    ]
                  }
                }
              ],
              "status": "completed",
              "medicationCodeableConcept": {
                "coding": [
                  {
                    "system": "http://terminology.hl7.org/CodeSystem/data-absent-reason",
                    "code": "not-applicable"
                  }
                ]
              },
              "performer": [
                {
                  "actor": {
                    "reference": "urn:uuid:7fef5bd2-b886-4dbb-84e9-6a257b018855"
                  }
                }
              ],
              "authorizingPrescription": [
                {
                  "identifier": {
                    "system": "https://gematik.de/fhir/erp/NamingSystem/GEM_ERP_NS_PrescriptionId",
                    "value": "200.625.688.123.368.48"
                  }
                }
              ],
              "type": {
                "coding": [
                  {
                    "system": "http://fhir.abda.de/eRezeptAbgabedaten/CodeSystem/DAV-CS-ERP-MedicationDispenseTyp",
                    "code": "Abgabeinformationen"
                  }
                ]
              },
              "whenHandedOver": "2023-07-03"
            }
          },
          {
            "fullUrl": "urn:uuid:b7a0732b-4162-4ec3-85c4-888191c97cb1",
            "resource": {
              "resourceType": "Invoice",
              "id": "b7a0732b-4162-4ec3-85c4-888191c97cb1",
              "meta": {
                "profile": [
                  "http://fhir.abda.de/eRezeptAbgabedaten/StructureDefinition/DAV-PKV-PR-ERP-Abrechnungszeilen|1.2"
                ]
              },
              "status": "issued",
              "type": {
                "coding": [
                  {
                    "system": "http://fhir.abda.de/eRezeptAbgabedaten/CodeSystem/DAV-CS-ERP-InvoiceTyp",
                    "code": "Abrechnungszeilen"
                  }
                ]
              },
              "lineItem": [
                {
                  "sequence": 1,
                  "chargeItemCodeableConcept": {
                    "coding": [
                      {
                        "system": "http://fhir.de/CodeSystem/ifa/pzn",
                        "code": "00427833"
                      }
                    ],
                    "text": "Viani 50µg/250µg 1 Diskus 60 ED N1"
                  },
                  "priceComponent": [
                    {
                      "extension": [
                        {
                          "url": "http://fhir.abda.de/eRezeptAbgabedaten/StructureDefinition/DAV-EX-ERP-MwStSatz",
                          "valueDecimal": 19
                        },
                        {
                          "url": "http://fhir.abda.de/eRezeptAbgabedaten/StructureDefinition/DAV-EX-ERP-KostenVersicherter",
                          "extension": [
                            {
                              "url": "Kategorie",
                              "valueCodeableConcept": {
                                "coding": [
                                  {
                                    "system": "http://fhir.abda.de/eRezeptAbgabedaten/CodeSystem/DAV-PKV-CS-ERP-KostenVersicherterKategorie",
                                    "code": "0"
                                  }
                                ]
                              }
                            },
                            {
                              "url": "Kostenbetrag",
                              "valueMoney": {
                                "value": 0,
                                "currency": "EUR"
                              }
                            }
                          ]
                        }
                      ],
                      "type": "informational",
                      "factor": 2,
                      "amount": {
                        "value": 82.68,
                        "currency": "EUR"
                      }
                    }
                  ]
                }
              ],
              "totalGross": {
                "extension": [
                  {
                    "url": "http://fhir.abda.de/eRezeptAbgabedaten/StructureDefinition/DAV-EX-ERP-Gesamtzuzahlung",
                    "valueMoney": {
                      "value": 0,
                      "currency": "EUR"
                    }
                  }
                ],
                "value": 82.68,
                "currency": "EUR"
              }
            }
          }
        ],
        "signature": {
          "type": [
            {
              "system": "urn:iso-astm:E1762-95:2013",
              "code": "1.2.840.10065.1.12.1.1"
            }
          ],
          "when": "2023-07-30T10:40:00+00:00",
          "who": {
            "reference": "https://erp-ref.zentral.erp.splitdns.ti-dienste.de/Device/1"
          },
          "sigFormat": "application/pkcs7-mime",
          "data": "Y2RjMTVjNThkMzlkMjllNDdjMTk1MjIzNDlkODRjMThiNTliYTZkMGFhZmI5NGYyZjM2NDFkNGJiZTk1ODhiMQ=="
        }
      },
      "fullUrl": "urn:uuid:c8606712-0000-0000-0004-000000000000"
    }
  ]
}
