{
  "resourceType": "Bundle",
  "type": "collection",
  "entry": [
    {
      "resource": {
        "resourceType": "ChargeItem",
        "id": "200.918.824.824.539.12",
        "meta": {
          "profile": [
            "https://gematik.de/fhir/erpchrg/StructureDefinition/GEM_ERPCHRG_PR_ChargeItem|1.0"
          ]
        },
        "identifier": [
          {
            "system": "https://gematik.de/fhir/erp/NamingSystem/GEM_ERP_NS_PrescriptionId",
            "value": "200.918.824.824.539.12"
          },
          {
            "system": "https://gematik.de/fhir/erp/NamingSystem/GEM_ERP_NS_AccessCode",
            "value": "abd4afed9f3f458114fc3407878213e110f238d1afa919fbed7282abbef68bfd"
          }
        ],
        "status": "billable",
        "code": {
          "coding": [
            {
              "system": "http://terminology.hl7.org/CodeSystem/data-absent-reason",
              "code": "not-applicable"
            }
          ]
        },
        "subject": {
          "identifier": {
            "system": "http://fhir.de/sid/pkv/kvid-10",
            "value": "X110465770"
          }
        },
        "enterer": {
          "identifier": {
            "system": "https://gematik.de/fhir/sid/telematik-id",
            "value": "3-SMC-B-Testkarte-883110000116873"
          }
        },
        "enteredDate": "2023-02-23T15:08:32.699+00:00",
        "supportingInformation": [
          {
            "reference": "urn:uuid:c8606712-0000-0000-0001-000000000000",
            "display": "https://fhir.kbv.de/StructureDefinition/KBV_PR_ERP_Bundle"
          },
          {
            "reference": "urn:uuid:c8606712-0000-0000-0004-000000000000",
            "display": "http://fhir.abda.de/eRezeptAbgabedaten/StructureDefinition/DAV-PKV-PR-ERP-AbgabedatenBundle"
          },
          {
            "reference": "urn:uuid:c8606712-0000-0000-0003-000000000000",
            "display": "https://gematik.de/fhir/erp/StructureDefinition/GEM_ERP_PR_Bundle"
          }
        ]
      }
    },
    {
      "resource": {
        "resourceType": "Bundle",
        "id": "c8606712-0000-0000-0003-000000000000",
        "meta": {
          "profile": [
            "https://gematik.de/fhir/erp/StructureDefinition/GEM_ERP_PR_Bundle|1.2"
          ]
        },
        "identifier": {
          "system": "https://gematik.de/fhir/erp/NamingSystem/GEM_ERP_NS_PrescriptionId",
          "value": "200.000.001.206.112.29"
        },
        "type": "document",
        "timestamp": "2023-02-23T15:08:30.803+00:00",
        "link": [
          {
            "relation": "self",
            "url": "https://erp-dev.zentral.erp.splitdns.ti-dienste.de/Task/200.000.001.206.112.29/$close/"
          }
        ],
        "entry": [
          {
            "fullUrl": "urn:uuid:1f107ad7-f4bf-47e3-a606-0181f5dd4f73",
            "resource": {
              "resourceType": "Composition",
              "id": "1f107ad7-f4bf-47e3-a606-0181f5dd4f73",
              "meta": {
                "profile": [
                  "https://gematik.de/fhir/erp/StructureDefinition/GEM_ERP_PR_Composition|1.2"
                ]
              },
              "extension": [
                {
                  "url": "https://gematik.de/fhir/erp/StructureDefinition/GEM_ERP_EX_Beneficiary",
                  "valueIdentifier": {
                    "system": "https://gematik.de/fhir/sid/telematik-id",
                    "value": "3-SMC-B-Testkarte-883110000116873"
                  }
                }
              ],
              "status": "final",
              "type": {
                "coding": [
                  {
                    "system": "https://gematik.de/fhir/erp/CodeSystem/GEM_ERP_CS_DocumentType",
                    "code": "3",
                    "display": "Receipt"
                  }
                ]
              },
              "date": "2023-02-23T15:08:30.802+00:00",
              "author": [
                {
                  "reference": "https://erp-dev.zentral.erp.splitdns.ti-dienste.de/Device/1"
                }
              ],
              "title": "Quittung",
              "event": [
                {
                  "period": {
                    "start": "2023-02-23T15:08:29.843+00:00",
                    "end": "2023-02-23T15:08:30.802+00:00"
                  }
                }
              ],
              "section": [
                {
                  "entry": [
                    {
                      "reference": "Binary/PrescriptionDigest-200.000.001.206.112.29"
                    }
                  ]
                }
              ]
            }
          },
          {
            "fullUrl": "https://erp-dev.zentral.erp.splitdns.ti-dienste.de/Device/1",
            "resource": {
              "resourceType": "Device",
              "id": "1",
              "meta": {
                "profile": [
                  "https://gematik.de/fhir/erp/StructureDefinition/GEM_ERP_PR_Device|1.2"
                ]
              },
              "status": "active",
              "serialNumber": "1.9.0",
              "deviceName": [
                {
                  "name": "E-Rezept Fachdienst",
                  "type": "user-friendly-name"
                }
              ],
              "version": [
                {
                  "value": "1.9.0"
                }
              ],
              "contact": [
                {
                  "system": "email",
                  "value": "betrieb@gematik.de"
                }
              ]
            }
          },
          {
            "fullUrl": "https://erp-dev.zentral.erp.splitdns.ti-dienste.de/Binary/PrescriptionDigest-200.000.001.206.112.29",
            "resource": {
              "resourceType": "Binary",
              "id": "PrescriptionDigest-200.000.001.206.112.29",
              "meta": {
                "versionId": "1",
                "profile": [
                  "https://gematik.de/fhir/erp/StructureDefinition/GEM_ERP_PR_Digest|1.2"
                ]
              },
              "contentType": "application/octet-stream",
              "data": "aYDkjPosw3Sa5dX5EmSghwhVg7d9jhoXHdwszETXV/8="
            }
          }
        ],
        "signature": {
          "type": [
            {
              "system": "urn:iso-astm:E1762-95:2013",
              "code": "1.2.840.10065.1.12.1.1"
            }
          ],
          "when": "2023-02-23T15:08:32.985+00:00",
          "who": {
            "reference": "https://erp-dev.zentral.erp.splitdns.ti-dienste.de/Device/1"
          },
          "sigFormat": "application/pkcs7-mime",
          "data": "aYDkjPosw3Sa5dX5EmSghwhVg7d9jhoXHdwszETXV/8="
        }
      },
      "fullUrl": "urn:uuid:c8606712-0000-0000-0003-000000000000"
    },
    {
      "resource": {
        "resourceType": "MedicationDispense",
        "id": "deb4953e-1513-49ce-b1f4-acdf8daa6a40",
        "meta": {
          "profile": [
            "https://gematik.de/fhir/erp/StructureDefinition/GEM_ERP_PR_MedicationDispense|1.2"
          ],
          "tag": [
            {
              "display": "Beispiel MedicationDispense PKV MV PZN Bsp 1/4"
            }
          ]
        },
        "contained": [
          {
            "resourceType": "Medication",
            "id": "f03507b4-1618-42f7-bfe6-83a17f1a5772",
            "meta": {
              "profile": [
                "https://fhir.kbv.de/StructureDefinition/KBV_PR_ERP_Medication_PZN|1.1.0"
              ]
            },
            "extension": [
              {
                "url": "https://fhir.kbv.de/StructureDefinition/KBV_EX_Base_Medication_Type",
                "valueCodeableConcept": {
                  "coding": [
                    {
                      "system": "http://snomed.info/sct",
                      "version": "http://snomed.info/sct/900000000000207008/version/20220331",
                      "code": "763158003",
                      "display": "Medicinal product (product)"
                    }
                  ]
                }
              },
              {
                "url": "https://fhir.kbv.de/StructureDefinition/KBV_EX_ERP_Medication_Category",
                "valueCoding": {
                  "system": "https://fhir.kbv.de/CodeSystem/KBV_CS_ERP_Medication_Category",
                  "code": "00"
                }
              },
              {
                "url": "https://fhir.kbv.de/StructureDefinition/KBV_EX_ERP_Medication_Vaccine",
                "valueBoolean": false
              },
              {
                "url": "http://fhir.de/StructureDefinition/normgroesse",
                "valueCode": "N3"
              }
            ],
            "code": {
              "coding": [
                {
                  "system": "http://fhir.de/CodeSystem/ifa/pzn",
                  "code": "02532741"
                }
              ],
              "text": "L-thyroxin 75 Henning Tabletten 100 St"
            },
            "form": {
              "coding": [
                {
                  "system": "https://fhir.kbv.de/CodeSystem/KBV_CS_SFHIR_KBV_DARREICHUNGSFORM",
                  "code": "TAB"
                }
              ]
            },
            "batch": {
              "lotNumber": "A123456789-1",
              "expirationDate": "2024-12-31"
            }
          }
        ],
        "identifier": [
          {
            "system": "https://gematik.de/fhir/erp/NamingSystem/GEM_ERP_NS_PrescriptionId",
            "value": "200.918.824.824.539.12"
          }
        ],
        "status": "completed",
        "medicationReference": {
          "reference": "#f03507b4-1618-42f7-bfe6-83a17f1a5772",
          "display": "L-thyroxin 75 Henning Tabletten 100 St"
        },
        "subject": {
          "identifier": {
            "system": "http://fhir.de/sid/pkv/kvid-10",
            "value": "P123464113"
          }
        },
        "performer": [
          {
            "actor": {
              "identifier": {
                "system": "https://gematik.de/fhir/sid/telematik-id",
                "value": "3-abc-1234567890"
              }
            }
          }
        ],
        "whenHandedOver": "2023-07-03"
      }
    },
    {
      "resource": {
        "resourceType": "Bundle",
        "id": "3a229be3-ee90-4a64-8b54-b34ceaf6725a",
        "meta": {
          "profile": [
            "http://fhir.abda.de/eRezeptAbgabedaten/StructureDefinition/DAV-PKV-PR-ERP-AbgabedatenBundle|1.2"
          ],
          "tag": [
            {
              "display": "Beispiel RezeptAbgabedatenPKV Bundle (PZN-4 Mehrfachverordnung 1/4)"
            },
            {
              "display": "ACHTUNG! Der fachlich korrekte Inhalt der Beispielinstanz kann nicht gewährleistet werden. Wir sind jederzeit dankbar für Hinweise auf Fehler oder für Verbesserungsvorschläge."
            }
          ]
        },
        "identifier": {
          "system": "https://gematik.de/fhir/erp/NamingSystem/GEM_ERP_NS_PrescriptionId",
          "value": "200.918.824.824.539.12"
        },
        "type": "document",
        "timestamp": "2023-07-03T11:30:00+00:00",
        "entry": [
          {
            "fullUrl": "urn:uuid:2bfd8c93-c8e2-4d4c-8a04-d8de2a728c8d",
            "resource": {
              "resourceType": "Composition",
              "id": "2bfd8c93-c8e2-4d4c-8a04-d8de2a728c8d",
              "meta": {
                "profile": [
                  "http://fhir.abda.de/eRezeptAbgabedaten/StructureDefinition/DAV-PKV-PR-ERP-AbgabedatenComposition|1.2"
                ]
              },
              "status": "final",
              "type": {
                "coding": [
                  {
                    "system": "http://fhir.abda.de/eRezeptAbgabedaten/CodeSystem/DAV-CS-ERP-CompositionTypes",
                    "code": "ERezeptAbgabedaten"
                  }
                ]
              },
              "date": "2023-07-03T11:30:00Z",
              "author": [
                {
                  "reference": "urn:uuid:21f61477-fd82-4fdd-9c0c-f7941ba2a145"
                }
              ],
              "title": "ERezeptAbgabedaten",
              "section": [
                {
                  "title": "Abgabeinformationen",
                  "entry": [
                    {
                      "reference": "urn:uuid:49b247bd-3e87-411d-ac70-281ed8bd3842"
                    }
                  ]
                },
                {
                  "title": "Apotheke",
                  "entry": [
                    {
                      "reference": "urn:uuid:21f61477-fd82-4fdd-9c0c-f7941ba2a145"
                    }
                  ]
                }
              ]
            }
          },
          {
            "fullUrl": "urn:uuid:21f61477-fd82-4fdd-9c0c-f7941ba2a145",
            "resource": {
              "resourceType": "Organization",
              "id": "21f61477-fd82-4fdd-9c0c-f7941ba2a145",
              "meta": {
                "profile": [
                  "http://fhir.abda.de/eRezeptAbgabedaten/StructureDefinition/DAV-PKV-PR-ERP-Apotheke|1.2"
                ]
              },
              "identifier": [
                {
                  "system": "http://fhir.de/sid/arge-ik/iknr",
                  "value": "308412345"
                }
              ],
              "name": "Adler-Apotheke",
              "address": [
                {
                  "type": "physical",
                  "line": [
                    "Taunusstraße 89"
                  ],
                  "_line": [
                    {
                      "extension": [
                        {
                          "url": "http://hl7.org/fhir/StructureDefinition/iso21090-ADXP-streetName",
                          "valueString": "Taunusstraße"
                        },
                        {
                          "url": "http://hl7.org/fhir/StructureDefinition/iso21090-ADXP-houseNumber",
                          "valueString": "89"
                        }
                      ]
                    }
                  ],
                  "city": "Langen",
                  "postalCode": "63225",
                  "country": "D"
                }
              ]
            }
          },
          {
            "fullUrl": "urn:uuid:49b247bd-3e87-411d-ac70-281ed8bd3842",
            "resource": {
              "resourceType": "MedicationDispense",
              "id": "49b247bd-3e87-411d-ac70-281ed8bd3842",
              "meta": {
                "profile": [
                  "http://fhir.abda.de/eRezeptAbgabedaten/StructureDefinition/DAV-PKV-PR-ERP-Abgabeinformationen|1.2"
                ]
              },
              "extension": [
                {
                  "url": "http://fhir.abda.de/eRezeptAbgabedaten/StructureDefinition/DAV-EX-ERP-Abrechnungszeilen",
                  "valueReference": {
                    "reference": "urn:uuid:9e029cfe-e5bb-41a9-b8f8-80dcb046ebd4"
                  }
                },
                {
                  "url": "http://fhir.abda.de/eRezeptAbgabedaten/StructureDefinition/DAV-PKV-EX-ERP-AbrechnungsTyp",
                  "valueCodeableConcept": {
                    "coding": [
                      {
                        "system": "http://fhir.abda.de/eRezeptAbgabedaten/CodeSystem/DAV-PKV-CS-ERP-AbrechnungsTyp",
                        "code": "1"
                      }
                    ]
                  }
                }
              ],
              "status": "completed",
              "medicationCodeableConcept": {
                "coding": [
                  {
                    "system": "http://terminology.hl7.org/CodeSystem/data-absent-reason",
                    "code": "not-applicable"
                  }
                ]
              },
              "performer": [
                {
                  "actor": {
                    "reference": "urn:uuid:21f61477-fd82-4fdd-9c0c-f7941ba2a145"
                  }
                }
              ],
              "authorizingPrescription": [
                {
                  "identifier": {
                    "system": "https://gematik.de/fhir/erp/NamingSystem/GEM_ERP_NS_PrescriptionId",
                    "value": "200.918.824.824.539.12"
                  }
                }
              ],
              "type": {
                "coding": [
                  {
                    "system": "http://fhir.abda.de/eRezeptAbgabedaten/CodeSystem/DAV-CS-ERP-MedicationDispenseTyp",
                    "code": "Abgabeinformationen"
                  }
                ]
              },
              "whenHandedOver": "2023-07-03"
            }
          },
          {
            "fullUrl": "urn:uuid:9e029cfe-e5bb-41a9-b8f8-80dcb046ebd4",
            "resource": {
              "resourceType": "Invoice",
              "id": "9e029cfe-e5bb-41a9-b8f8-80dcb046ebd4",
              "meta": {
                "profile": [
                  "http://fhir.abda.de/eRezeptAbgabedaten/StructureDefinition/DAV-PKV-PR-ERP-Abrechnungszeilen|1.2"
                ]
              },
              "status": "issued",
              "type": {
                "coding": [
                  {
                    "system": "http://fhir.abda.de/eRezeptAbgabedaten/CodeSystem/DAV-CS-ERP-InvoiceTyp",
                    "code": "Abrechnungszeilen"
                  }
                ]
              },
              "lineItem": [
                {
                  "sequence": 1,
                  "chargeItemCodeableConcept": {
                    "coding": [
                      {
                        "system": "http://fhir.de/CodeSystem/ifa/pzn",
                        "code": "02532741"
                      }
                    ],
                    "text": "L-thyroxin 75 Henning Tabletten 100 St"
                  },
                  "priceComponent": [
                    {
                      "extension": [
                        {
                          "url": "http://fhir.abda.de/eRezeptAbgabedaten/StructureDefinition/DAV-EX-ERP-MwStSatz",
                          "valueDecimal": 19
                        },
                        {
                          "url": "http://fhir.abda.de/eRezeptAbgabedaten/StructureDefinition/DAV-EX-ERP-KostenVersicherter",
                          "extension": [
                            {
                              "url": "Kategorie",
                              "valueCodeableConcept": {
                                "coding": [
                                  {
                                    "system": "http://fhir.abda.de/eRezeptAbgabedaten/CodeSystem/DAV-PKV-CS-ERP-KostenVersicherterKategorie",
                                    "code": "0"
                                  }
                                ]
                              }
                            },
                            {
                              "url": "Kostenbetrag",
                              "valueMoney": {
                                "value": 0,
                                "currency": "EUR"
                              }
                            }
                          ]
                        }
                      ],
                      "type": "informational",
                      "factor": 1,
                      "amount": {
                        "value": 15.4,
                        "currency": "EUR"
                      }
                    }
                  ]
                }
              ],
              "totalGross": {
                "extension": [
                  {
                    "url": "http://fhir.abda.de/eRezeptAbgabedaten/StructureDefinition/DAV-EX-ERP-Gesamtzuzahlung",
                    "valueMoney": {
                      "value": 0,
                      "currency": "EUR"
                    }
                  }
                ],
                "value": 15.4,
                "currency": "EUR"
              }
            }
          }
        ],
        "signature": {
          "type": [
            {
              "system": "urn:iso-astm:E1762-95:2013",
              "code": "1.2.840.10065.1.12.1.1"
            }
          ],
          "when": "2023-07-30T10:40:00+00:00",
          "who": {
            "reference": "https://erp-ref.zentral.erp.splitdns.ti-dienste.de/Device/1"
          },
          "sigFormat": "application/pkcs7-mime",
          "data": "Y2RjMTVjNThkMzlkMjllNDdjMTk1MjIzNDlkODRjMThiNTliYTZkMGFhZmI5NGYyZjM2NDFkNGJiZTk1ODhiMQ=="
        }
      },
      "fullUrl": "urn:uuid:c8606712-0000-0000-0004-000000000000"
    },
    {
      "resource": {
        "resourceType": "Bundle",
        "id": "a6a38da0-feb9-4fff-9365-320ef0f809ce",
        "meta": {
          "profile": [
            "https://fhir.kbv.de/StructureDefinition/KBV_PR_ERP_Bundle|1.1.0"
          ]
        },
        "identifier": {
          "system": "https://gematik.de/fhir/erp/NamingSystem/GEM_ERP_NS_PrescriptionId",
          "value": "200.918.824.824.539.12"
        },
        "type": "document",
        "timestamp": "2023-07-03T08:30:00+00:00",
        "entry": [
          {
            "fullUrl": "http://pvs.praxis.local/fhir/Composition/0692dd77-09e7-4c2f-912e-496b3722caef",
            "resource": {
              "resourceType": "Composition",
              "id": "0692dd77-09e7-4c2f-912e-496b3722caef",
              "meta": {
                "profile": [
                  "https://fhir.kbv.de/StructureDefinition/KBV_PR_ERP_Composition|1.1.0"
                ]
              },
              "extension": [
                {
                  "url": "https://fhir.kbv.de/StructureDefinition/KBV_EX_FOR_Legal_basis",
                  "valueCoding": {
                    "system": "https://fhir.kbv.de/CodeSystem/KBV_CS_SFHIR_KBV_STATUSKENNZEICHEN",
                    "code": "00"
                  }
                },
                {
                  "url": "https://fhir.kbv.de/StructureDefinition/KBV_EX_FOR_PKV_Tariff",
                  "valueCoding": {
                    "system": "https://fhir.kbv.de/CodeSystem/KBV_CS_SFHIR_KBV_PKV_TARIFF",
                    "code": "01"
                  }
                }
              ],
              "status": "final",
              "type": {
                "coding": [
                  {
                    "system": "https://fhir.kbv.de/CodeSystem/KBV_CS_SFHIR_KBV_FORMULAR_ART",
                    "code": "e16A"
                  }
                ]
              },
              "subject": {
                "reference": "Patient/b15127d9-fb48-4285-a624-84be9ceee983"
              },
              "date": "2023-07-03T08:00:00Z",
              "author": [
                {
                  "reference": "Practitioner/55159bc1-9582-4b54-9e3b-3ff54019d48a",
                  "type": "Practitioner"
                },
                {
                  "type": "Device",
                  "identifier": {
                    "system": "https://fhir.kbv.de/NamingSystem/KBV_NS_FOR_Pruefnummer",
                    "value": "Y/400/2107/36/999"
                  }
                }
              ],
              "title": "elektronische Arzneimittelverordnung",
              "custodian": {
                "reference": "Organization/bf59e2a2-8e6d-40c2-8705-1ae2cd8d71bc"
              },
              "section": [
                {
                  "code": {
                    "coding": [
                      {
                        "system": "https://fhir.kbv.de/CodeSystem/KBV_CS_ERP_Section_Type",
                        "code": "Prescription"
                      }
                    ]
                  },
                  "entry": [
                    {
                      "reference": "MedicationRequest/fcebdc57-fce4-43ce-957c-5a7657755f4f"
                    }
                  ]
                },
                {
                  "code": {
                    "coding": [
                      {
                        "system": "https://fhir.kbv.de/CodeSystem/KBV_CS_ERP_Section_Type",
                        "code": "Coverage"
                      }
                    ]
                  },
                  "entry": [
                    {
                      "reference": "Coverage/aec2ba44-7f89-44b7-8c32-698ef7cce100"
                    }
                  ]
                }
              ]
            }
          },
          {
            "fullUrl": "http://pvs.praxis.local/fhir/MedicationRequest/fcebdc57-fce4-43ce-957c-5a7657755f4f",
            "resource": {
              "resourceType": "MedicationRequest",
              "id": "fcebdc57-fce4-43ce-957c-5a7657755f4f",
              "meta": {
                "profile": [
                  "https://fhir.kbv.de/StructureDefinition/KBV_PR_ERP_Prescription|1.1.0"
                ]
              },
              "extension": [
                {
                  "url": "https://fhir.kbv.de/StructureDefinition/KBV_EX_ERP_EmergencyServicesFee",
                  "valueBoolean": false
                },
                {
                  "url": "https://fhir.kbv.de/StructureDefinition/KBV_EX_ERP_BVG",
                  "valueBoolean": false
                },
                {
                  "url": "https://fhir.kbv.de/StructureDefinition/KBV_EX_ERP_Multiple_Prescription",
                  "extension": [
                    {
                      "url": "Kennzeichen",
                      "valueBoolean": true
                    },
                    {
                      "url": "Nummerierung",
                      "valueRatio": {
                        "numerator": {
                          "value": 1
                        },
                        "denominator": {
                          "value": 4
                        }
                      }
                    },
                    {
                      "url": "Zeitraum",
                      "valuePeriod": {
                        "start": "2023-07-03",
                        "end": "2023-09-30"
                      }
                    },
                    {
                      "url": "ID",
                      "valueIdentifier": {
                        "value": "f9bb62c2-2de0-4223-84e4-9bf36a5d9f5b"
                      }
                    }
                  ]
                }
              ],
              "status": "active",
              "intent": "order",
              "medicationReference": {
                "reference": "Medication/389ca392-0748-49dc-a156-7bcb152cd155"
              },
              "subject": {
                "reference": "Patient/b15127d9-fb48-4285-a624-84be9ceee983"
              },
              "authoredOn": "2023-07-03",
              "requester": {
                "reference": "Practitioner/55159bc1-9582-4b54-9e3b-3ff54019d48a"
              },
              "insurance": [
                {
                  "reference": "Coverage/aec2ba44-7f89-44b7-8c32-698ef7cce100"
                }
              ],
              "dosageInstruction": [
                {
                  "extension": [
                    {
                      "url": "https://fhir.kbv.de/StructureDefinition/KBV_EX_ERP_DosageFlag",
                      "valueBoolean": false
                    }
                  ]
                }
              ],
              "dispenseRequest": {
                "quantity": {
                  "value": 1,
                  "system": "http://unitsofmeasure.org",
                  "code": "{Package}"
                }
              },
              "substitution": {
                "allowedBoolean": false
              }
            }
          },
          {
            "fullUrl": "http://pvs.praxis.local/fhir/Medication/389ca392-0748-49dc-a156-7bcb152cd155",
            "resource": {
              "resourceType": "Medication",
              "id": "389ca392-0748-49dc-a156-7bcb152cd155",
              "meta": {
                "profile": [
                  "https://fhir.kbv.de/StructureDefinition/KBV_PR_ERP_Medication_PZN|1.1.0"
                ]
              },
              "extension": [
                {
                  "url": "https://fhir.kbv.de/StructureDefinition/KBV_EX_Base_Medication_Type",
                  "valueCodeableConcept": {
                    "coding": [
                      {
                        "system": "http://snomed.info/sct",
                        "version": "http://snomed.info/sct/900000000000207008/version/20220331",
                        "code": "763158003",
                        "display": "Medicinal product (product)"
                      }
                    ]
                  }
                },
                {
                  "url": "https://fhir.kbv.de/StructureDefinition/KBV_EX_ERP_Medication_Category",
                  "valueCoding": {
                    "system": "https://fhir.kbv.de/CodeSystem/KBV_CS_ERP_Medication_Category",
                    "code": "00"
                  }
                },
                {
                  "url": "https://fhir.kbv.de/StructureDefinition/KBV_EX_ERP_Medication_Vaccine",
                  "valueBoolean": false
                },
                {
                  "url": "http://fhir.de/StructureDefinition/normgroesse",
                  "valueCode": "N3"
                }
              ],
              "code": {
                "coding": [
                  {
                    "system": "http://fhir.de/CodeSystem/ifa/pzn",
                    "code": "02532741"
                  }
                ],
                "text": "L-Thyroxin Henning 75 100 Tbl. N3"
              },
              "form": {
                "coding": [
                  {
                    "system": "https://fhir.kbv.de/CodeSystem/KBV_CS_SFHIR_KBV_DARREICHUNGSFORM",
                    "code": "TAB"
                  }
                ]
              }
            }
          },
          {
            "fullUrl": "http://pvs.praxis.local/fhir/Patient/b15127d9-fb48-4285-a624-84be9ceee983",
            "resource": {
              "resourceType": "Patient",
              "id": "b15127d9-fb48-4285-a624-84be9ceee983",
              "meta": {
                "profile": [
                  "https://fhir.kbv.de/StructureDefinition/KBV_PR_FOR_Patient|1.1.0"
                ]
              },
              "identifier": [
                {
                  "type": {
                    "coding": [
                      {
                        "system": "http://fhir.de/CodeSystem/identifier-type-de-basis",
                        "code": "PKV"
                      }
                    ]
                  },
                  "system": "http://fhir.de/sid/pkv/kvid-10",
                  "value": "P123464113"
                }
              ],
              "name": [
                {
                  "use": "official",
                  "family": "Privati",
                  "_family": {
                    "extension": [
                      {
                        "url": "http://hl7.org/fhir/StructureDefinition/humanname-own-name",
                        "valueString": "Privati"
                      }
                    ]
                  },
                  "given": [
                    "Paula"
                  ]
                }
              ],
              "birthDate": "1935-06-22",
              "address": [
                {
                  "type": "both",
                  "line": [
                    "Blumenweg 18"
                  ],
                  "_line": [
                    {
                      "extension": [
                        {
                          "url": "http://hl7.org/fhir/StructureDefinition/iso21090-ADXP-streetName",
                          "valueString": "Blumenweg"
                        },
                        {
                          "url": "http://hl7.org/fhir/StructureDefinition/iso21090-ADXP-houseNumber",
                          "valueString": "18"
                        }
                      ]
                    }
                  ],
                  "city": "Esens",
                  "postalCode": "26427",
                  "country": "D"
                }
              ]
            }
          },
          {
            "fullUrl": "http://pvs.praxis.local/fhir/Practitioner/55159bc1-9582-4b54-9e3b-3ff54019d48a",
            "resource": {
              "resourceType": "Practitioner",
              "id": "55159bc1-9582-4b54-9e3b-3ff54019d48a",
              "meta": {
                "profile": [
                  "https://fhir.kbv.de/StructureDefinition/KBV_PR_FOR_Practitioner|1.1.0"
                ]
              },
              "identifier": [
                {
                  "type": {
                    "coding": [
                      {
                        "system": "http://terminology.hl7.org/CodeSystem/v2-0203",
                        "code": "LANR"
                      }
                    ]
                  },
                  "system": "https://fhir.kbv.de/NamingSystem/KBV_NS_Base_ANR",
                  "value": "987654423"
                },
                {
                  "type": {
                    "coding": [
                      {
                        "system": "http://terminology.hl7.org/CodeSystem/v2-0203",
                        "code": "PRN"
                      }
                    ]
                  },
                  "system": "https://gematik.de/fhir/sid/telematik-id",
                  "value": "1-748382202"
                }
              ],
              "name": [
                {
                  "use": "official",
                  "family": "Schneider",
                  "_family": {
                    "extension": [
                      {
                        "url": "http://hl7.org/fhir/StructureDefinition/humanname-own-name",
                        "valueString": "Schneider"
                      }
                    ]
                  },
                  "given": [
                    "Emma"
                  ],
                  "prefix": [
                    "Dr. med."
                  ],
                  "_prefix": [
                    {
                      "extension": [
                        {
                          "url": "http://hl7.org/fhir/StructureDefinition/iso21090-EN-qualifier",
                          "valueCode": "AC"
                        }
                      ]
                    }
                  ]
                }
              ],
              "qualification": [
                {
                  "code": {
                    "coding": [
                      {
                        "system": "https://fhir.kbv.de/CodeSystem/KBV_CS_FOR_Qualification_Type",
                        "code": "00"
                      }
                    ]
                  }
                },
                {
                  "code": {
                    "coding": [
                      {
                        "system": "https://fhir.kbv.de/CodeSystem/KBV_CS_FOR_Berufsbezeichnung",
                        "code": "Berufsbezeichnung"
                      }
                    ],
                    "text": "Fachärztin für Innere Medizin"
                  }
                }
              ]
            }
          },
          {
            "fullUrl": "http://pvs.praxis.local/fhir/Organization/bf59e2a2-8e6d-40c2-8705-1ae2cd8d71bc",
            "resource": {
              "resourceType": "Organization",
              "id": "bf59e2a2-8e6d-40c2-8705-1ae2cd8d71bc",
              "meta": {
                "profile": [
                  "https://fhir.kbv.de/StructureDefinition/KBV_PR_FOR_Organization|1.1.0"
                ]
              },
              "identifier": [
                {
                  "type": {
                    "coding": [
                      {
                        "system": "http://terminology.hl7.org/CodeSystem/v2-0203",
                        "code": "BSNR"
                      }
                    ]
                  },
                  "system": "https://fhir.kbv.de/NamingSystem/KBV_NS_Base_BSNR",
                  "value": "721111100"
                }
              ],
              "name": "MVZ",
              "telecom": [
                {
                  "system": "phone",
                  "value": "0301234567"
                },
                {
                  "system": "fax",
                  "value": "030123456789"
                },
                {
                  "system": "email",
                  "value": "mvz@e-mail.de"
                }
              ],
              "address": [
                {
                  "type": "both",
                  "line": [
                    "Herbert-Lewin-Platz 2"
                  ],
                  "_line": [
                    {
                      "extension": [
                        {
                          "url": "http://hl7.org/fhir/StructureDefinition/iso21090-ADXP-streetName",
                          "valueString": "Herbert-Lewin-Platz"
                        },
                        {
                          "url": "http://hl7.org/fhir/StructureDefinition/iso21090-ADXP-houseNumber",
                          "valueString": "2"
                        }
                      ]
                    }
                  ],
                  "city": "Berlin",
                  "postalCode": "10623",
                  "country": "D"
                }
              ]
            }
          },
          {
            "fullUrl": "http://pvs.praxis.local/fhir/Coverage/aec2ba44-7f89-44b7-8c32-698ef7cce100",
            "resource": {
              "resourceType": "Coverage",
              "id": "aec2ba44-7f89-44b7-8c32-698ef7cce100",
              "meta": {
                "profile": [
                  "https://fhir.kbv.de/StructureDefinition/KBV_PR_FOR_Coverage|1.1.0"
                ]
              },
              "extension": [
                {
                  "url": "http://fhir.de/StructureDefinition/gkv/besondere-personengruppe",
                  "valueCoding": {
                    "system": "https://fhir.kbv.de/CodeSystem/KBV_CS_SFHIR_KBV_PERSONENGRUPPE",
                    "code": "00"
                  }
                },
                {
                  "url": "http://fhir.de/StructureDefinition/gkv/dmp-kennzeichen",
                  "valueCoding": {
                    "system": "https://fhir.kbv.de/CodeSystem/KBV_CS_SFHIR_KBV_DMP",
                    "code": "00"
                  }
                },
                {
                  "url": "http://fhir.de/StructureDefinition/gkv/versichertenart",
                  "valueCoding": {
                    "system": "https://fhir.kbv.de/CodeSystem/KBV_CS_SFHIR_KBV_VERSICHERTENSTATUS",
                    "code": "1"
                  }
                }
              ],
              "status": "active",
              "type": {
                "coding": [
                  {
                    "system": "http://fhir.de/CodeSystem/versicherungsart-de-basis",
                    "code": "PKV"
                  }
                ]
              },
              "beneficiary": {
                "reference": "Patient/b15127d9-fb48-4285-a624-84be9ceee983"
              },
              "payor": [
                {
                  "identifier": {
                    "system": "http://fhir.de/sid/arge-ik/iknr",
                    "value": "123456789"
                  },
                  "display": "Allianz Private Krankenversicherung"
                }
              ]
            }
          }
        ],
        "signature": {
          "type": [
            {
              "system": "urn:iso-astm:E1762-95:2013",
              "code": "1.2.840.10065.1.12.1.1"
            }
          ],
          "when": "2023-07-30T10:40:00+00:00",
          "who": {
            "reference": "https://erp-ref.zentral.erp.splitdns.ti-dienste.de/Device/1"
          },
          "sigFormat": "application/pkcs7-mime",
          "data": "Y2RjMTVjNThkMzlkMjllNDdjMTk1MjIzNDlkODRjMThiNTliYTZkMGFhZmI5NGYyZjM2NDFkNGJiZTk1ODhiMQ=="
        }
      },
      "fullUrl": "urn:uuid:c8606712-0000-0000-0001-000000000000"
    }
  ]
}
