{
  "resourceType": "Bundle",
  "id": "6d240a29-144f-477b-b8e7-92d4b4bcebfd",
  "meta": {
    "profile": [
      "http://fhir.abda.de/eRezeptAbgabedaten/StructureDefinition/DAV-PKV-PR-ERP-AbgabedatenBundle|1.2"
    ],
    "tag": [
      {
        "display": "Beispiel RezeptAbgabedatenPKV Bundle (PZN-1)"
      },
      {
        "display": "ACHTUNG! Der fachlich korrekte Inhalt der Beispielinstanz kann nicht gewährleistet werden. Wir sind jederzeit dankbar für Hinweise auf Fehler oder für Verbesserungsvorschläge."
      }
    ]
  },
  "identifier": {
    "system": "https://gematik.de/fhir/erp/NamingSystem/GEM_ERP_NS_PrescriptionId",
    "value": "200.424.187.927.272.20"
  },
  "type": "document",
  "timestamp": "2023-07-03T11:30:00+00:00",
  "entry": [
    {
      "fullUrl": "urn:uuid:0877a6ac-9433-43b2-bcd5-46046479c306",
      "resource": {
        "resourceType": "Composition",
        "id": "0877a6ac-9433-43b2-bcd5-46046479c306",
        "meta": {
          "profile": [
            "http://fhir.abda.de/eRezeptAbgabedaten/StructureDefinition/DAV-PKV-PR-ERP-AbgabedatenComposition|1.2"
          ]
        },
        "status": "final",
        "type": {
          "coding": [
            {
              "system": "http://fhir.abda.de/eRezeptAbgabedaten/CodeSystem/DAV-CS-ERP-CompositionTypes",
              "code": "ERezeptAbgabedaten"
            }
          ]
        },
        "date": "2023-07-03T11:30:00Z",
        "author": [
          {
            "reference": "urn:uuid:b998a7cd-f582-4a23-b86a-58e22402d105"
          }
        ],
        "title": "ERezeptAbgabedaten",
        "section": [
          {
            "title": "Abgabeinformationen",
            "entry": [
              {
                "reference": "urn:uuid:7b1e6c94-71fb-4bbe-9c5a-2e865efd8526"
              }
            ]
          },
          {
            "title": "Apotheke",
            "entry": [
              {
                "reference": "urn:uuid:b998a7cd-f582-4a23-b86a-58e22402d105"
              }
            ]
          }
        ]
      }
    },
    {
      "fullUrl": "urn:uuid:b998a7cd-f582-4a23-b86a-58e22402d105",
      "resource": {
        "resourceType": "Organization",
        "id": "b998a7cd-f582-4a23-b86a-58e22402d105",
        "meta": {
          "profile": [
            "http://fhir.abda.de/eRezeptAbgabedaten/StructureDefinition/DAV-PKV-PR-ERP-Apotheke|1.2"
          ]
        },
        "identifier": [
          {
            "system": "http://fhir.de/sid/arge-ik/iknr",
            "value": "308412345"
          }
        ],
        "name": "Adler-Apotheke",
        "address": [
          {
            "type": "physical",
            "line": [
              "Taunusstraße 89"
            ],
            "_line": [
              {
                "extension": [
                  {
                    "url": "http://hl7.org/fhir/StructureDefinition/iso21090-ADXP-streetName",
                    "valueString": "Taunusstraße"
                  },
                  {
                    "url": "http://hl7.org/fhir/StructureDefinition/iso21090-ADXP-houseNumber",
                    "valueString": "89"
                  }
                ]
              }
            ],
            "city": "Langen",
            "postalCode": "63225",
            "country": "D"
          }
        ]
      }
    },
    {
      "fullUrl": "urn:uuid:7b1e6c94-71fb-4bbe-9c5a-2e865efd8526",
      "resource": {
        "resourceType": "MedicationDispense",
        "id": "7b1e6c94-71fb-4bbe-9c5a-2e865efd8526",
        "meta": {
          "profile": [
            "http://fhir.abda.de/eRezeptAbgabedaten/StructureDefinition/DAV-PKV-PR-ERP-Abgabeinformationen|1.2"
          ]
        },
        "extension": [
          {
            "url": "http://fhir.abda.de/eRezeptAbgabedaten/StructureDefinition/DAV-EX-ERP-Abrechnungszeilen",
            "valueReference": {
              "reference": "urn:uuid:da94b6d8-f853-48b9-b101-be9280b81a71"
            }
          },
          {
            "url": "http://fhir.abda.de/eRezeptAbgabedaten/StructureDefinition/DAV-PKV-EX-ERP-AbrechnungsTyp",
            "valueCodeableConcept": {
              "coding": [
                {
                  "system": "http://fhir.abda.de/eRezeptAbgabedaten/CodeSystem/DAV-PKV-CS-ERP-AbrechnungsTyp",
                  "code": "1"
                }
              ]
            }
          }
        ],
        "status": "completed",
        "medicationCodeableConcept": {
          "coding": [
            {
              "system": "http://terminology.hl7.org/CodeSystem/data-absent-reason",
              "code": "not-applicable"
            }
          ]
        },
        "performer": [
          {
            "actor": {
              "reference": "urn:uuid:b998a7cd-f582-4a23-b86a-58e22402d105"
            }
          }
        ],
        "authorizingPrescription": [
          {
            "identifier": {
              "system": "https://gematik.de/fhir/erp/NamingSystem/GEM_ERP_NS_PrescriptionId",
              "value": "200.424.187.927.272.20"
            }
          }
        ],
        "type": {
          "coding": [
            {
              "system": "http://fhir.abda.de/eRezeptAbgabedaten/CodeSystem/DAV-CS-ERP-MedicationDispenseTyp",
              "code": "Abgabeinformationen"
            }
          ]
        },
        "whenHandedOver": "2023-07-03"
      }
    },
    {
      "fullUrl": "urn:uuid:da94b6d8-f853-48b9-b101-be9280b81a71",
      "resource": {
        "resourceType": "Invoice",
        "id": "da94b6d8-f853-48b9-b101-be9280b81a71",
        "meta": {
          "profile": [
            "http://fhir.abda.de/eRezeptAbgabedaten/StructureDefinition/DAV-PKV-PR-ERP-Abrechnungszeilen|1.2"
          ]
        },
        "status": "issued",
        "type": {
          "coding": [
            {
              "system": "http://fhir.abda.de/eRezeptAbgabedaten/CodeSystem/DAV-CS-ERP-InvoiceTyp",
              "code": "Abrechnungszeilen"
            }
          ]
        },
        "lineItem": [
          {
            "sequence": 1,
            "chargeItemCodeableConcept": {
              "coding": [
                {
                  "system": "http://fhir.de/CodeSystem/ifa/pzn",
                  "code": "03879429"
                }
              ],
              "text": "BELOC-ZOK mite 47,5 mg Retardtabletten 30 St"
            },
            "priceComponent": [
              {
                "extension": [
                  {
                    "url": "http://fhir.abda.de/eRezeptAbgabedaten/StructureDefinition/DAV-EX-ERP-MwStSatz",
                    "valueDecimal": 19
                  },
                  {
                    "url": "http://fhir.abda.de/eRezeptAbgabedaten/StructureDefinition/DAV-EX-ERP-KostenVersicherter",
                    "extension": [
                      {
                        "url": "Kategorie",
                        "valueCodeableConcept": {
                          "coding": [
                            {
                              "system": "http://fhir.abda.de/eRezeptAbgabedaten/CodeSystem/DAV-PKV-CS-ERP-KostenVersicherterKategorie",
                              "code": "0"
                            }
                          ]
                        }
                      },
                      {
                        "url": "Kostenbetrag",
                        "valueMoney": {
                          "value": 0,
                          "currency": "EUR"
                        }
                      }
                    ]
                  }
                ],
                "type": "informational",
                "factor": 1,
                "amount": {
                  "value": 21.04,
                  "currency": "EUR"
                }
              }
            ]
          }
        ],
        "totalGross": {
          "extension": [
            {
              "url": "http://fhir.abda.de/eRezeptAbgabedaten/StructureDefinition/DAV-EX-ERP-Gesamtzuzahlung",
              "valueMoney": {
                "value": 0,
                "currency": "EUR"
              }
            }
          ],
          "value": 21.04,
          "currency": "EUR"
        }
      }
    }
  ],
  "signature": {
    "type": [
      {
        "system": "urn:iso-astm:E1762-95:2013",
        "code": "1.2.840.10065.1.12.1.1"
      }
    ],
    "when": "2023-07-30T10:40:00+00:00",
    "who": {
      "reference": "https://erp-ref.zentral.erp.splitdns.ti-dienste.de/Device/1"
    },
    "sigFormat": "application/pkcs7-mime",
    "data": "Y2RjMTVjNThkMzlkMjllNDdjMTk1MjIzNDlkODRjMThiNTliYTZkMGFhZmI5NGYyZjM2NDFkNGJiZTk1ODhiMQ=="
  }
}