[
  {
    "id":"34af283c-fc44-4214-a494-70d6c2a300a2",
    "type":"collection",
    "timestamp":"2025-03-31T14:37:25.147+00:00",
    "resourceType":"Bundle",
    "link":[
      {
        "relation":"self",
        "url":"https://erp-dev.zentral.erp.splitdns.ti-dienste.de/Task/162.000.000.000.975.33"
      }
    ],
    "entry":[
      {
        "fullUrl":"https://erp-dev.zentral.erp.splitdns.ti-dienste.de/Task/162.000.000.000.975.33",
        "resource":{
          "resourceType":"Task",
          "id":"162.000.000.000.975.33",
          "meta":{
            "profile":[
              "https://gematik.de/fhir/erp/StructureDefinition/GEM_ERP_PR_Task|1.4"
            ]
          },
          "identifier":[
            {
              "use":"official",
              "system":"https://gematik.de/fhir/erp/NamingSystem/GEM_ERP_NS_PrescriptionId",
              "value":"162.000.000.000.975.33"
            },
            {
              "use":"official",
              "system":"https://gematik.de/fhir/erp/NamingSystem/GEM_ERP_NS_AccessCode",
              "value":"4bef26f30312d9f25cb8684f5e7c4dc7bd4685872b4a750e5a7bce26963b5873"
            }
          ],
          "intent":"order",
          "status":"in-progress",
          "extension":[
            {
              "url":"https://gematik.de/fhir/erp/StructureDefinition/GEM_ERP_EX_PrescriptionType",
              "valueCoding":{
                "system":"https://gematik.de/fhir/erp/CodeSystem/GEM_ERP_CS_FlowType",
                "code":"162",
                "display":"Muster 16 (Digitale Gesundheitsanwendungen)"
              }
            },
            {
              "url":"https://gematik.de/fhir/erp/StructureDefinition/GEM_ERP_EX_ExpiryDate",
              "valueDate":"2025-06-30"
            },
            {
              "url":"https://gematik.de/fhir/erp/StructureDefinition/GEM_ERP_EX_AcceptDate",
              "valueDate":"2025-06-30"
            }
          ],
          "authoredOn":"2025-03-31T13:48:31.284+00:00",
          "lastModified":"2025-03-31T13:51:51.085+00:00",
          "performerType":[
            {
              "coding":[
                {
                  "system":"https://gematik.de/fhir/erp/CodeSystem/GEM_ERP_CS_OrganizationType",
                  "code":"urn:oid:1.2.276.0.76.4.59",
                  "display":"Kostenträger"
                }
              ],
              "text":"Kostenträger"
            }
          ],
          "for":{
            "identifier":{
              "value":"X110519788",
              "system":"http://fhir.de/sid/gkv/kvid-10"
            }
          },
          "owner":{
            "identifier":{
              "system":"https://gematik.de/fhir/sid/telematik-id",
              "value":"8-SMC-B-Testkarte--883110000163954"
            }
          },
          "input":[
            {
              "type":{
                "coding":[
                  {
                    "system":"https://gematik.de/fhir/erp/CodeSystem/GEM_ERP_CS_DocumentType",
                    "code":"2"
                  }
                ]
              },
              "valueReference":{
                "reference":"a2cf0300-0000-0000-0002-000000000000"
              }
            }
          ]
        }
      },
      {
        "fullUrl":"urn:uuid:a2cf0300-0000-0000-0002-000000000000",
        "resource":{
          "resourceType":"Bundle",
          "id":"a2cf0300-0000-0000-0002-000000000000",
          "meta":{
            "profile":[
              "https://fhir.kbv.de/StructureDefinition/KBV_PR_EVDGA_Bundle|1.1"
            ]
          },
          "identifier":{
            "system":"https://gematik.de/fhir/erp/NamingSystem/GEM_ERP_NS_PrescriptionId",
            "value":"162.000.000.000.975.33"
          },
          "type":"document",
          "timestamp":"2025-03-31T13:48:31Z",
          "entry":[
            {
              "fullUrl":"http://pvs.praxis-topp-gluecklich.local/fhir/Composition/55eb2cd5-27f0-46ef-87d1-1ffc30e85fd9",
              "resource":{
                "resourceType":"Composition",
                "id":"55eb2cd5-27f0-46ef-87d1-1ffc30e85fd9",
                "meta":{
                  "profile":[
                    "https://fhir.kbv.de/StructureDefinition/KBV_PR_EVDGA_Composition|1.1"
                  ]
                },
                "extension":[
                  {
                    "url":"https://fhir.kbv.de/StructureDefinition/KBV_EX_FOR_Legal_basis",
                    "valueCoding":{
                      "system":"https://fhir.kbv.de/CodeSystem/KBV_CS_SFHIR_KBV_STATUSKENNZEICHEN",
                      "code":"00"
                    }
                  }
                ],
                "status":"final",
                "type":{
                  "coding":[
                    {
                      "system":"https://fhir.kbv.de/CodeSystem/KBV_CS_SFHIR_KBV_FORMULAR_ART",
                      "code":"e16D"
                    }
                  ]
                },
                "subject":{
                  "reference":"Patient/40acd463-b25d-4ede-8b1f-2b0994f29aa5"
                },
                "date":"2025-03-31T13:48:31Z",
                "author":[
                  {
                    "reference":"Practitioner/1228772e-1c72-493b-8b5c-5ae54d25843d",
                    "type":"Practitioner"
                  },
                  {
                    "type":"Device",
                    "identifier":{
                      "system":"https://fhir.kbv.de/NamingSystem/KBV_NS_FOR_Pruefnummer",
                      "value":"Y/450/2501/36/523"
                    }
                  }
                ],
                "title":"elektronische Verordnung digitaler Gesundheitsanwendungen",
                "custodian":{
                  "reference":"Organization/b87b9d90-c8db-4660-93eb-fed916caa2da"
                },
                "section":[
                  {
                    "code":{
                      "coding":[
                        {
                          "system":"https://fhir.kbv.de/CodeSystem/KBV_CS_EVDGA_Section_Type",
                          "code":"Prescription"
                        }
                      ]
                    },
                    "entry":[
                      {
                        "reference":"DeviceRequest/a1533e28-4631-4afa-b5e6-f233fad87f53"
                      }
                    ]
                  },
                  {
                    "code":{
                      "coding":[
                        {
                          "system":"https://fhir.kbv.de/CodeSystem/KBV_CS_EVDGA_Section_Type",
                          "code":"HealthInsurance"
                        }
                      ]
                    },
                    "entry":[
                      {
                        "reference":"Coverage/2d3a92c2-c93c-47ad-8ab5-49b275be97ee"
                      }
                    ]
                  }
                ]
              }
            },
            {
              "fullUrl":"http://pvs.praxis-topp-gluecklich.local/fhir/DeviceRequest/a1533e28-4631-4afa-b5e6-f233fad87f53",
              "resource":{
                "resourceType":"DeviceRequest",
                "id":"a1533e28-4631-4afa-b5e6-f233fad87f53",
                "meta":{
                  "profile":[
                    "https://fhir.kbv.de/StructureDefinition/KBV_PR_EVDGA_HealthAppRequest|1.1"
                  ]
                },
                "extension":[
                  {
                    "url":"https://fhir.kbv.de/StructureDefinition/KBV_EX_EVDGA_SER",
                    "valueBoolean":false
                  }
                ],
                "status":"active",
                "intent":"order",
                "codeCodeableConcept":{
                  "coding":[
                    {
                      "system":"http://fhir.de/CodeSystem/ifa/pzn",
                      "code":"19205615"
                    }
                  ],
                  "text":"Vantis KHK und Herzinfarkt 001"
                },
                "subject":{
                  "reference":"Patient/40acd463-b25d-4ede-8b1f-2b0994f29aa5"
                },
                "authoredOn":"2025-03-31",
                "requester":{
                  "reference":"Practitioner/1228772e-1c72-493b-8b5c-5ae54d25843d"
                },
                "insurance":[
                  {
                    "reference":"Coverage/2d3a92c2-c93c-47ad-8ab5-49b275be97ee"
                  }
                ]
              }
            },
            {
              "fullUrl":"http://pvs.praxis-topp-gluecklich.local/fhir/Patient/40acd463-b25d-4ede-8b1f-2b0994f29aa5",
              "resource":{
                "resourceType":"Patient",
                "id":"40acd463-b25d-4ede-8b1f-2b0994f29aa5",
                "meta":{
                  "profile":[
                    "https://fhir.kbv.de/StructureDefinition/KBV_PR_FOR_Patient|1.1.0"
                  ]
                },
                "identifier":[
                  {
                    "type":{
                      "coding":[
                        {
                          "system":"http://fhir.de/CodeSystem/identifier-type-de-basis",
                          "code":"GKV"
                        }
                      ]
                    },
                    "system":"http://fhir.de/sid/gkv/kvid-10",
                    "value":"X110519788"
                  }
                ],
                "name":[
                  {
                    "use":"official",
                    "family":"Königsstein",
                    "_family":{
                      "extension":[
                        {
                          "url":"http://hl7.org/fhir/StructureDefinition/humanname-own-name",
                          "valueString":"Königsstein"
                        }
                      ]
                    },
                    "given":[
                      "Ludger"
                    ]
                  }
                ],
                "birthDate":"1935-06-22",
                "address":[
                  {
                    "type":"both",
                    "line":[
                      "Musterstr. 1"
                    ],
                    "_line":[
                      {
                        "extension":[
                          {
                            "url":"http://hl7.org/fhir/StructureDefinition/iso21090-ADXP-houseNumber",
                            "valueString":"1"
                          },
                          {
                            "url":"http://hl7.org/fhir/StructureDefinition/iso21090-ADXP-streetName",
                            "valueString":"Musterstr."
                          }
                        ]
                      }
                    ],
                    "city":"Berlin",
                    "postalCode":"10623"
                  }
                ]
              }
            },
            {
              "fullUrl":"http://pvs.praxis-topp-gluecklich.local/fhir/Practitioner/1228772e-1c72-493b-8b5c-5ae54d25843d",
              "resource":{
                "resourceType":"Practitioner",
                "id":"1228772e-1c72-493b-8b5c-5ae54d25843d",
                "meta":{
                  "profile":[
                    "https://fhir.kbv.de/StructureDefinition/KBV_PR_FOR_Practitioner|1.1.0"
                  ]
                },
                "identifier":[
                  {
                    "type":{
                      "coding":[
                        {
                          "system":"http://terminology.hl7.org/CodeSystem/v2-0203",
                          "code":"LANR"
                        }
                      ]
                    },
                    "system":"https://fhir.kbv.de/NamingSystem/KBV_NS_Base_ANR",
                    "value":"838382202"
                  }
                ],
                "name":[
                  {
                    "use":"official",
                    "family":"Topp-Glücklich",
                    "_family":{
                      "extension":[
                        {
                          "url":"http://hl7.org/fhir/StructureDefinition/humanname-own-name",
                          "valueString":"Topp-Glücklich"
                        }
                      ]
                    },
                    "given":[
                      "Hans"
                    ],
                    "prefix":[
                      "Dr. med."
                    ],
                    "_prefix":[
                      {
                        "extension":[
                          {
                            "url":"http://hl7.org/fhir/StructureDefinition/iso21090-EN-qualifier",
                            "valueCode":"AC"
                          }
                        ]
                      }
                    ]
                  }
                ],
                "qualification":[
                  {
                    "code":{
                      "coding":[
                        {
                          "system":"https://fhir.kbv.de/CodeSystem/KBV_CS_FOR_Qualification_Type",
                          "code":"00"
                        }
                      ]
                    }
                  },
                  {
                    "code":{
                      "coding":[
                        {
                          "system":"https://fhir.kbv.de/CodeSystem/KBV_CS_FOR_Berufsbezeichnung",
                          "code":"Berufsbezeichnung"
                        }
                      ],
                      "text":"Hausarzt"
                    }
                  }
                ]
              }
            },
            {
              "fullUrl":"http://pvs.praxis-topp-gluecklich.local/fhir/Organization/b87b9d90-c8db-4660-93eb-fed916caa2da",
              "resource":{
                "resourceType":"Organization",
                "id":"b87b9d90-c8db-4660-93eb-fed916caa2da",
                "meta":{
                  "profile":[
                    "https://fhir.kbv.de/StructureDefinition/KBV_PR_FOR_Organization|1.1.0"
                  ]
                },
                "identifier":[
                  {
                    "type":{
                      "coding":[
                        {
                          "system":"http://terminology.hl7.org/CodeSystem/v2-0203",
                          "code":"BSNR"
                        }
                      ]
                    },
                    "system":"https://fhir.kbv.de/NamingSystem/KBV_NS_Base_BSNR",
                    "value":"031234567"
                  }
                ],
                "name":"Hausarztpraxis Dr. Topp-Glücklich",
                "telecom":[
                  {
                    "system":"phone",
                    "value":"0301234567"
                  }
                ],
                "address":[
                  {
                    "type":"both",
                    "line":[
                      "Musterstr. 2"
                    ],
                    "_line":[
                      {
                        "extension":[
                          {
                            "url":"http://hl7.org/fhir/StructureDefinition/iso21090-ADXP-houseNumber",
                            "valueString":"2"
                          },
                          {
                            "url":"http://hl7.org/fhir/StructureDefinition/iso21090-ADXP-streetName",
                            "valueString":"Musterstr."
                          }
                        ]
                      }
                    ],
                    "city":"Berlin",
                    "postalCode":"10623"
                  }
                ]
              }
            },
            {
              "fullUrl":"http://pvs.praxis-topp-gluecklich.local/fhir/Coverage/2d3a92c2-c93c-47ad-8ab5-49b275be97ee",
              "resource":{
                "resourceType":"Coverage",
                "id":"2d3a92c2-c93c-47ad-8ab5-49b275be97ee",
                "meta":{
                  "profile":[
                    "https://fhir.kbv.de/StructureDefinition/KBV_PR_FOR_Coverage|1.1.0"
                  ]
                },
                "extension":[
                  {
                    "url":"http://fhir.de/StructureDefinition/gkv/besondere-personengruppe",
                    "valueCoding":{
                      "system":"https://fhir.kbv.de/CodeSystem/KBV_CS_SFHIR_KBV_PERSONENGRUPPE",
                      "code":"00"
                    }
                  },
                  {
                    "url":"http://fhir.de/StructureDefinition/gkv/dmp-kennzeichen",
                    "valueCoding":{
                      "system":"https://fhir.kbv.de/CodeSystem/KBV_CS_SFHIR_KBV_DMP",
                      "code":"00"
                    }
                  },
                  {
                    "url":"http://fhir.de/StructureDefinition/gkv/wop",
                    "valueCoding":{
                      "system":"https://fhir.kbv.de/CodeSystem/KBV_CS_SFHIR_ITA_WOP",
                      "code":"03"
                    }
                  },
                  {
                    "url":"http://fhir.de/StructureDefinition/gkv/versichertenart",
                    "valueCoding":{
                      "system":"https://fhir.kbv.de/CodeSystem/KBV_CS_SFHIR_KBV_VERSICHERTENSTATUS",
                      "code":"1"
                    }
                  }
                ],
                "status":"active",
                "type":{
                  "coding":[
                    {
                      "system":"http://fhir.de/CodeSystem/versicherungsart-de-basis",
                      "code":"GKV"
                    }
                  ]
                },
                "beneficiary":{
                  "reference":"Patient/40acd463-b25d-4ede-8b1f-2b0994f29aa5"
                },
                "period":{
                  "end":"2026-08-21"
                },
                "payor":[
                  {
                    "identifier":{
                      "system":"http://fhir.de/sid/arge-ik/iknr",
                      "value":"104212059"
                    },
                    "display":"AOK Rheinland/Hamburg"
                  }
                ]
              }
            }
          ],
          "signature":{
            "type":[
              {
                "system":"urn:iso-astm:E1762-95:2013",
                "code":"1.2.840.10065.1.12.1.5"
              }
            ],
            "when":"2025-03-31T14:37:25.147+00:00",
            "who":{
              "reference":"https://erp-dev.zentral.erp.splitdns.ti-dienste.de/Device/1"
            },
            "sigFormat":"application/jose",
            "data":"",
            "targetFormat":"application/fhir+json"
          }
        }
      }
    ]
  }
]